userid,vzor_id,ATMS_1,ATMS_2,ATMS_3,ATMS_4,ATMS_5,ATMS_6,ATMS_7,ATMS_8,max_TMS_1,max_TMS_2,max_TMS_3,max_TMS_4,max_TMS_5,max_TMS_6,max_TMS_7,max_TMS_8,min_TMS_1,min_TMS_2,min_TMS_3,min_TMS_4,min_TMS_5,min_TMS_6,min_TMS_7,min_TMS_8,length_1,length_2,length_3,length_4,length_5,length_6,length_7,length_8,accel_x_1,accel_x_2,accel_x_3,accel_x_4,accel_x_5,accel_x_6,accel_x_7,accel_x_8,accel_y_1,accel_y_2,accel_y_3,accel_y_4,accel_y_5,accel_y_6,accel_y_7,accel_y_8,accel_z_1,accel_z_2,accel_z_3,accel_z_4,accel_z_5,accel_z_6,accel_z_7,accel_z_8,max_accel_x_1,max_accel_x_2,max_accel_x_3,max_accel_x_4,max_accel_x_5,max_accel_x_6,max_accel_x_7,max_accel_x_8,min_accel_x_1,min_accel_x_2,min_accel_x_3,min_accel_x_4,min_accel_x_5,min_accel_x_6,min_accel_x_7,min_accel_x_8,max_accel_y_1,max_accel_y_2,max_accel_y_3,max_accel_y_4,max_accel_y_5,max_accel_y_6,max_accel_y_7,max_accel_y_8,min_accel_y_1,min_accel_y_2,min_accel_y_3,min_accel_y_4,min_accel_y_5,min_accel_y_6,min_accel_y_7,min_accel_y_8,max_accel_z_1,max_accel_z_2,max_accel_z_3,max_accel_z_4,max_accel_z_5,max_accel_z_6,max_accel_z_7,max_accel_z_8,min_accel_z_1,min_accel_z_2,min_accel_z_3,min_accel_z_4,min_accel_z_5,min_accel_z_6,min_accel_z_7,min_accel_z_8,total_accel_1,total_accel_2,total_accel_3,total_accel_4,total_accel_5,total_accel_6,total_accel_7,total_accel_8,gyro_x_1,gyro_x_2,gyro_x_3,gyro_x_4,gyro_x_5,gyro_x_6,gyro_x_7,gyro_x_8,gyro_y_1,gyro_y_2,gyro_y_3,gyro_y_4,gyro_y_5,gyro_y_6,gyro_y_7,gyro_y_8,gyro_z_1,gyro_z_2,gyro_z_3,gyro_z_4,gyro_z_5,gyro_z_6,gyro_z_7,gyro_z_8,max_gyro_x_1,max_gyro_x_2,max_gyro_x_3,max_gyro_x_4,max_gyro_x_5,max_gyro_x_6,max_gyro_x_7,max_gyro_x_8,min_gyro_x_1,min_gyro_x_2,min_gyro_x_3,min_gyro_x_4,min_gyro_x_5,min_gyro_x_6,min_gyro_x_7,min_gyro_x_8,max_gyro_y_1,max_gyro_y_2,max_gyro_y_3,max_gyro_y_4,max_gyro_y_5,max_gyro_y_6,max_gyro_y_7,max_gyro_y_8,min_gyro_y_1,min_gyro_y_2,min_gyro_y_3,min_gyro_y_4,min_gyro_y_5,min_gyro_y_6,min_gyro_y_7,min_gyro_y_8,max_gyro_z_1,max_gyro_z_2,max_gyro_z_3,max_gyro_z_4,max_gyro_z_5,max_gyro_z_6,max_gyro_z_7,max_gyro_z_8,min_gyro_z_1,min_gyro_z_2,min_gyro_z_3,min_gyro_z_4,min_gyro_z_5,min_gyro_z_6,min_gyro_z_7,min_gyro_z_8,total_gyro_1,total_gyro_2,total_gyro_3,total_gyro_4,total_gyro_5,total_gyro_6,total_gyro_7,total_gyro_8
Vdz0RsiozHP4K6UydnPn7SYRwwE2,1,1.79e-06,3.7e-07,1.13e-06,1.8e-06,4e-08,,,3.13e-06,4e-06,4.6e-07,2.34e-06,3.07e-06,4e-08,,,3.56e-06,7e-08,2.8e-07,3.4e-07,1.8e-07,4e-08,,,2.69e-06,286.17474135,12.28238563,246.52534163,425.31821254,1.0,,,164.16029533,-2.37451667,-1.71305,-1.98610091,-1.98718818,-2.01592,,,-2.236185,7.74843444,7.60518,7.75286,7.63467455,7.71891,,,7.81228,5.35476444,5.97473,5.43331545,5.35952818,5.74369,,,4.85065,-1.80283,-1.68791,-1.79805,-1.7765,-2.01592,,,-1.96325,-3.33512,-1.73819,-2.13802,-2.09253,-2.01592,,,-2.50912,8.36055,7.67102,7.9703,7.83383,7.71891,,,7.82904,7.20415,7.53934,7.44357,7.31429,7.71891,,,7.79552,7.16106,6.34463,6.92882,6.45716,5.74369,,,5.27203,3.7182,5.60483,4.88417,4.62081,5.74369,,,4.42927,9.82977781,9.82754794,9.68787304,9.54764202,9.83033468,,,9.4755538,-0.35552371,-0.01160645,0.04953569,0.1954769,0.133779,,,-0.7000515,-1,-1.0,0.0,0.0,0.0,,,-1.0,-0.08110931,-0.08765915,0.00288775,-0.02299074,0.0372628,,,-0.0448986,0.0824668,0.0299324,0.133169,0.319483,0.133779,,,-0.602313,-0.808175,-0.0531453,-0.022602,0.0177151,0.133779,,,-0.79779,-0.672563,-0.44471,0.156382,0.239459,0.29627,,,-1.10139,-1.08306,-0.595594,-0.286496,-0.138056,0.29627,,,-1.15698,0.0836885,-0.0824668,0.0415388,0.0372628,0.0372628,,,-0.0213803,-0.22602,-0.0928515,-0.107512,-0.0934624,0.0372628,,,-0.0684169,0.98838329,0.52946711,0.12529749,0.24762428,0.32720215,,,1.33311994
Vdz0RsiozHP4K6UydnPn7SYRwwE2,1,1.62e-06,,1.96e-06,1.12e-06,,,,,3.31e-06,,4.29e-06,3.5e-06,,,,,5e-08,,1.4e-07,2.9e-07,,,,,485.94314703,,316.30790557,355.60863546,,,,,-2.84000333,,-2.62613875,-2.59980437,,,,,7.58546933,,7.52168375,7.47783938,,,,,5.286238,,5.4309475,5.33068938,,,,,-2.47082,,-2.43969,-2.31759,,,,,-3.42371,,-2.89698,-2.79882,,,,,8.58561,,7.68778,7.71891,,,,,7.18979,,7.34541,7.24007,,,,,6.42843,,5.89452,5.7796,,,,,3.02148,,5.09726,4.68785,,,,,9.73870985,,9.64563103,9.55091668,,,,,-0.35865929,,0.09972366,0.05043456,,,,,-1,,0.0,0.0,,,,,-0.13475694,,0.03123048,-0.02703078,,,,,0.0659734,,0.180816,0.131336,,,,,-0.703106,,-0.0549779,-0.0977384,,,,,-0.086132,,0.0965167,0.129503,,,,,-0.968221,,-0.0934624,-0.187536,,,,,0.0122173,,0.0775799,0.0219911,,,,,-0.21869,,-0.0329867,-0.0629191,,,,,0.65952995,,0.13554221,0.14041596,,,,
Vdz0RsiozHP4K6UydnPn7SYRwwE2,1,1.72e-06,,1.66e-06,1.59e-06,6e-08,,,4.21e-06,4.06e-06,,3.04e-06,3.29e-06,6e-08,,,4.42e-06,2.7e-07,,3.8e-07,1.7e-07,6e-08,,,4.01e-06,352.0779454,,193.63965671,471.13487404,1.0,,,139.29136006,-2.35775667,,-2.54982429,-2.42857571,-2.71981,,,-2.554615,7.29646444,,7.46238571,7.34369786,7.22331,,,7.401675,6.02806778,,5.55352143,5.72539143,6.2752,,,4.91769,-1.95127,,-2.29843,-1.98479,-2.71981,,,-2.50673,-3.26809,,-2.81558,-2.84431,-2.71981,,,-2.6025,8.36295,,7.54892,7.69496,7.22331,,,7.56807,6.9791,,7.36935,7.07247,7.22331,,,7.23528,7.38611,,6.17704,7.01262,6.2752,,,5.42526,3.24175,,5.14993,4.52265,6.2752,,,4.41012,9.82623828,,9.65169086,9.64264562,9.94744735,,,9.26104332,-0.449936,,0.0468621,0.13591752,0.121562,,,-0.750448,-1,,0.0,0.0,0.0,,,-1.0,-0.16106477,,-8.726e-05,0.00418878,0.0794125,,,-0.1768455,-0.076969,,0.122784,0.276722,0.121562,,,-0.74831,-0.666454,,-0.00916298,0.00610865,0.121562,,,-0.752586,-0.241292,,0.369573,0.40256,0.376904,,,-1.03175,-1.26632,,0.168599,-0.171653,0.376904,,,-1.20035,-0.0500909,,0.0256563,0.0696386,0.0794125,,,-0.142942,-0.287107,,-0.0274889,-0.0867429,0.0794125,,,-0.210749,0.90634918,,0.30354947,0.27899218,0.40390629,,,1.35744742
Vdz0RsiozHP4K6UydnPn7SYRwwE2,1,1.55e-06,5.3e-07,1.05e-06,2.16e-06,,,,2.34e-06,3.18e-06,5.9e-07,2.43e-06,3.22e-06,,,,3.69e-06,7.6e-07,4.2e-07,4e-07,3.3e-07,,,,9.9e-07,280.44617131,26.40454388,256.29587458,407.81859874,,,,175.11500857,-1.82704222,-1.52430667,-2.29865182,-2.343684,,,,-2.467225,5.96369111,5.62797,5.93696727,5.654385,,,,6.002265,7.45900222,8.84577667,7.10794909,7.281965,,,,6.353015,-1.0319,-1.23301,-1.52989,-1.69988,,,,-1.73101,-2.42772,-1.88424,-2.80122,-3.0981,,,,-3.20344,6.39252,5.77242,6.34224,6.03818,,,,6.12437,5.59525,5.46596,5.72693,5.27203,,,,5.88016,8.27436,9.09557,7.56089,7.61596,,,,6.69419,6.87615,8.55209,6.69658,6.52659,,,,6.01184,9.74206334,10.59921152,9.55442246,9.53234234,,,,9.11848414,-0.31839656,0.00407229,0.03559673,0.1064127,,,,-0.4324925,-1,0.0,0.0,0.0,,,,-1.0,-0.15828192,-0.25798867,-0.06258594,-0.0746478,,,,0.03481934,-0.143553,0.26145,0.466701,0.425773,,,,-0.399506,-0.417221,-0.249844,-0.131336,-0.12706,,,,-0.465479,-0.354302,-0.45876,0.368352,0.496023,,,,-1.25411,-1.57909,-0.483194,-0.39523,-0.243735,,,,-1.63956,-0.00733038,-0.221133,0.109345,0.160047,,,,0.0623083,-0.350026,-0.300546,-0.314596,-0.323759,,,,0.00733038,0.85688277,0.57253201,0.31352633,0.36819143,,,,1.51320465
Vdz0RsiozHP4K6UydnPn7SYRwwE2,1,1.27e-06,3.6e-07,1.26e-06,1.74e-06,,,,2.72e-06,2.65e-06,3.6e-07,2.96e-06,2.56e-06,,,,2.92e-06,5e-08,3.6e-07,4.6e-07,1.7e-07,,,,2.38e-06,244.92245786,12.16552506,417.2407161,269.64373684,,,,185.44235371,-2.70997,-1.5682,-1.94169688,-2.4313125,,,,-2.69906333,5.97645889,6.15549,6.07154625,5.74399125,,,,6.19858667,7.36110667,7.75721,7.22779625,7.2496425,,,,6.60320667,-1.98958,-1.5682,-0.40462,-1.84114,,,,-2.58095,-4.09648,-1.5682,-3.02148,-3.39737,,,,-2.9329,6.81629,6.15549,6.38055,6.20817,,,,6.21056,5.22415,6.15549,5.68623,5.33189,,,,6.17943,8.67898,7.75721,7.8458,7.87692,,,,6.92403,6.36618,7.75721,6.50026,6.54575,,,,6.4404,9.9067562,10.02614659,9.66871155,9.58027696,,,,9.45344299,-0.23436866,0.0891863,0.03367389,0.18669575,,,,-0.31765,-1,0.0,0.0,0.0,,,,-1.0,-0.09203708,0.00794125,-0.01920407,-0.19356779,,,,-0.0961094,0.0390954,0.0891863,0.24679,0.326202,,,,-0.244346,-0.601702,0.0891863,-0.133169,-0.0293215,,,,-0.422108,-0.405615,-0.436158,0.274889,0.216857,,,,-0.74098,-1.26022,-0.436158,-0.543059,-0.486249,,,,-1.43798,0.194255,0.00794125,0.252898,0.118508,,,,0.0146608,-0.333532,0.00794125,-0.324369,-0.424551,,,,-0.198531,0.81974618,0.44525393,0.26630302,0.41639665,,,,1.19116194
Vdz0RsiozHP4K6UydnPn7SYRwwE2,1,1.32e-06,3.2e-07,1.23e-06,1.72e-06,1.8e-07,,,2.34e-06,2.41e-06,3.4e-07,2.19e-06,2.39e-06,1.8e-07,,,3.13e-06,1e-08,3e-07,2.4e-07,1.7e-07,1.8e-07,,,6.7e-07,243.15418009,10.92997141,259.6740063,421.71173244,3.0,,,246.96417571,-2.15451667,-1.35991,-1.98327,-1.86029333,-2.30322,,,-2.81654,5.77454889,5.595245,6.13742818,5.9753275,5.96874,,,6.482542,7.65905111,8.431185,7.10490182,7.054715,7.29274,,,6.64391,-1.7334,-1.2402,-1.52271,-1.17076,-2.30322,,,-2.62165,-2.99754,-1.47962,-2.48758,-2.20027,-2.30322,,,-3.11486,6.37815,5.63834,6.39012,6.22253,5.96874,,,7.55371,5.36541,5.55215,5.69102,5.74369,5.96874,,,5.8227,8.3414,8.88728,8.27915,7.96072,7.29274,,,7.8027,5.22654,7.97509,6.51462,6.50026,7.29274,,,5.87777,9.87269177,10.21360007,9.61242897,9.43980392,9.70127498,,,9.73997189,-0.15454901,0.1597415,0.06058671,0.12935072,-0.158825,,,-0.540738,-1,0.0,0.0,0.0,0.0,,,-1.0,-0.22086178,-0.1450805,-0.00660842,-0.01949674,-0.109345,,,-0.15369362,0.130114,0.177151,0.37385,0.525955,-0.158825,,,-0.493579,-0.473421,0.142332,-0.105069,-0.161879,-0.158825,,,-0.602313,-0.522901,-0.365908,0.485027,0.441045,0.474642,,,-0.920574,-1.16187,-0.434325,-0.284052,-0.274889,0.474642,,,-1.21623,0.18326,-0.132558,0.0842994,0.168599,-0.109345,,,0.108734,-0.356745,-0.157603,-0.207083,-0.21869,-0.109345,,,-0.288328,0.99196684,0.45595133,0.31340819,0.31493692,0.51231508,,,1.21660773
Vdz0RsiozHP4K6UydnPn7SYRwwE2,1,1.4e-06,,1.37e-06,1.19e-06,,,,2.08e-06,2.59e-06,,2.46e-06,2.15e-06,,,,2.88e-06,1e-07,,1.5e-07,1.9e-07,,,,1.13e-06,264.27774553,,345.88241193,346.0480013,,,,184.1632246,-2.42639222,,-2.12586692,-2.38530929,,,,-3.4997275,5.62876778,,5.99950077,5.80457071,,,,6.0477525,7.65665667,,7.37322077,6.993975,,,,6.6463025,-1.40779,,-1.5706,-1.35751,,,,-2.74376,-4.55617,,-2.87304,-3.52666,,,,-4.46519,6.21774,,6.29675,6.29675,,,,6.22253,5.27203,,5.75327,5.18345,,,,5.56173,8.79151,,8.75799,7.73806,,,,7.66623,6.38534,,6.64391,6.59842,,,,5.76524,9.87593009,,9.75763762,9.42230079,,,,9.69433816,-0.18835014,,0.07151825,0.12967797,,,,-0.34926225,-1,,0.0,0.0,,,,-1.0,-0.12733146,,0.05483686,-0.04812745,,,,-0.08063413,0.067806,,0.268781,0.492357,,,,-0.295048,-0.43799,,-0.0335976,-0.0690278,,,,-0.408058,-0.224188,,0.378736,0.411112,,,,-0.376904,-1.48379,,-0.205251,-0.249844,,,,-1.3323,-0.0219911,,0.161879,0.150884,,,,0.00366519,-0.19059,,-0.0904081,-0.251676,,,,-0.216246,0.78626329,,0.28626843,0.28461931,,,,1.03946976
Vdz0RsiozHP4K6UydnPn7SYRwwE2,1,1.39e-06,4.8e-07,1.55e-06,1.29e-06,,,,2.45e-06,2.77e-06,4.8e-07,2.79e-06,2.35e-06,,,,3.09e-06,3e-08,4.8e-07,3e-07,1.5e-07,,,,1.71e-06,258.2389138,15.8113883,273.44691601,398.28007943,,,,174.38535914,-2.260127,-1.9824,-2.19867667,-2.20394267,,,,-2.96961,5.910804,5.81552,6.16586778,5.99859267,,,,6.18581667,7.502949,8.34619,7.18234,6.99075133,,,,6.36618,-1.25217,-1.9824,-1.1995,-1.16598,,,,-2.29604,-4.25689,-1.9824,-2.97839,-3.3878,,,,-3.81157,6.45716,5.81552,6.59842,6.39491,,,,6.40688,5.68384,5.81552,5.87058,5.47075,,,,6.01902,8.30549,8.34619,8.24324,7.70933,,,,7.59201,5.97353,8.34619,6.608,6.47632,,,,5.16429,9.8779859,10.36383472,9.7439306,9.50072146,,,,9.42715096,-0.24465132,0.108123,0.08260251,0.15739966,,,,-0.39136133,-1,0.0,0.0,0.0,,,,-1.0,-0.10024299,-0.20464,0.02477391,-0.04658861,,,,0.0109956,0.00549779,0.108123,0.232129,0.483194,,,,-0.332922,-0.398284,0.108123,-0.0421497,-0.0445932,,,,-0.428217,-0.425162,-0.345139,0.304211,0.347582,,,,-0.911411,-1.16675,-0.345139,-0.248011,-0.252898,,,,-1.44225,0.0592539,-0.20464,0.185703,0.0940733,,,,0.0739147,-0.191201,-0.20464,-0.160658,-0.353691,,,,-0.0733038,0.74233754,0.41555871,0.22782299,0.30303419,,,,1.2794886
Vdz0RsiozHP4K6UydnPn7SYRwwE2,1,1.73e-06,3.9e-07,1.32e-06,1.43e-06,,,,1.99e-06,2.82e-06,3.9e-07,2.5e-06,2.34e-06,,,,2.34e-06,2.7e-07,3.9e-07,3e-07,2.4e-07,,,,1.65e-06,335.84870814,12.72792206,307.84612647,378.16733713,,,,105.07627085,-2.403539,-2.14999,-2.4392925,-2.01548227,,,,-3.69784,5.692215,5.63595,6.07349167,5.92369,,,,6.06092,7.569988,9.62469,7.29832583,6.88115273,,,,6.040575,-1.08218,-2.14999,-1.41976,-0.804452,,,,-3.52426,-4.01268,-2.14999,-3.5937,-3.29203,,,,-3.87142,6.21535,5.63595,6.59842,6.19859,,,,6.16028,5.32949,5.63595,5.74369,5.42287,,,,5.96156,8.95192,9.62469,8.63828,7.82186,,,,6.24887,6.25605,9.62469,6.4835,5.91128,,,,5.83228,9.83960304,11.3587432,9.83136938,9.34104439,,,,9.32634468,-0.343734,0.0158825,0.0870483,0.24773353,,,,-0.4657845,-1,0.0,0.0,0.0,,,,-1.0,-0.11215485,-0.0971276,0.03161232,-0.04126108,,,,-0.100182,-0.144164,0.0158825,0.489303,0.475864,,,,-0.456927,-0.516181,0.0158825,-0.0824668,-0.0733038,,,,-0.474642,-0.620028,-0.398895,0.244957,0.278555,,,,-0.760527,-1.36162,-0.398895,-0.237016,-0.0849103,,,,-0.980439,0.0531453,-0.0971276,0.160658,0.18326,,,,-0.095295,-0.222966,-0.0971276,-0.0574213,-0.281609,,,,-0.105069,1.04256311,0.41085672,0.2175935,0.36350487,,,,0.99333951
Vdz0RsiozHP4K6UydnPn7SYRwwE2,2,1e-06,5.9e-07,9.9e-07,,,,,3.04e-06,2.64e-06,1.18e-06,2.36e-06,,,,,3.51e-06,2.3e-07,2e-07,1.2e-07,,,,,2.43e-06,362.6300165,62.38057961,386.65918038,,,,,151.71636326,-1.85123157,-1.3463395,-0.76324632,,,,,-1.65838433,3.84064143,3.64477,3.81169368,,,,,4.52264667,8.73610071,9.42118167,8.75836684,,,,,8.55288667,-0.198719,-0.574608,-0.148441,,,,,-0.725443,-4.06057,-2.14281,-1.8579,,,,,-3.1795,4.75488,3.87142,4.30477,,,,,4.66869,3.28245,3.40455,3.20105,,,,,4.3766,10.5776,10.1538,9.9934,,,,,9.17458,7.37414,8.98065,7.70933,,,,,7.56328,9.8175456,10.20876966,9.6028032,,,,,9.89607744,-0.28832846,0.07055489,0.15805335,,,,,-0.50294567,0,0.0,0.0,,,,,-1.0,-0.18509219,-0.13530662,-0.02025502,,,,,-0.07004593,0.139888,0.352469,0.504575,,,,,-0.343917,-0.662789,-0.0665843,-0.0384845,,,,,-0.634078,-0.180205,-0.145997,0.394008,,,,,-0.384234,-0.778242,-0.519846,-0.660345,,,,,-1.26999,0.022602,0.0580322,0.147219,,,,,0.0274889,-0.588263,-0.326202,-0.294437,,,,,-0.213803,0.64725628,0.39491556,0.34008327,,,,,1.04771187
Vdz0RsiozHP4K6UydnPn7SYRwwE2,2,1.44e-06,7.1e-07,7.3e-07,,,,,2.07e-06,2.94e-06,1.17e-06,1.94e-06,,,,,2.07e-06,1.2e-07,3.5e-07,3.5e-07,,,,,2.07e-06,431.19417917,167.94792293,332.90192241,,,,,31.01612484,-1.72561917,-0.7381316,-0.75197089,,,,,-3.25133,4.27804,4.415146,4.3365692,,,,,5.03261,8.58082,8.846814,8.4326652,,,,,8.23845,-1.04387,-0.162806,0.344765,,,,,-3.25133,-2.48039,-1.33596,-1.6496,,,,,-3.25133,5.35822,4.94642,4.71897,,,,,5.03261,3.31597,4.03662,3.83551,,,,,5.03261,9.8282,9.51456,9.38766,,,,,8.23845,7.3909,8.06128,7.55131,,,,,8.23845,9.77920653,9.92838887,9.53103567,,,,,10.1867742,-0.36219211,-0.06023143,0.07491651,,,,,-0.686613,-1,0.0,0.0,,,,,0.0,-0.30365094,-0.08167273,-0.03941303,,,,,-0.380569,0.054367,0.210749,0.444099,,,,,-0.686613,-0.692721,-0.381791,-0.224798,,,,,-0.686613,-0.285274,0.0470366,0.205862,,,,,-0.316428,-1.16064,-0.335976,-0.644463,,,,,-0.316428,0.00855211,0.0684169,0.199142,,,,,-0.380569,-0.646906,-0.26145,-0.250455,,,,,-0.380569,0.86176105,0.29604223,0.23136462,,,,,0.8464023
Vdz0RsiozHP4K6UydnPn7SYRwwE2,2,1.44e-06,1.86e-06,6.1e-07,1.3e-07,,,,2.9e-06,3.3e-06,2.4e-06,1.41e-06,1.3e-07,,,,3.12e-06,6e-08,8.3e-07,6e-08,1.3e-07,,,,2.69e-06,338.694742,195.53759191,203.79422662,2.23606798,,,,96.04934876,-2.447527,-1.4748272,-1.13316141,-1.64721,,,,-1.508349,4.50349364,4.422572,4.77361529,4.60405,,,,5.204995,8.68268091,8.586086,8.12578118,7.80031,,,,7.202955,-0.847547,-0.550666,-0.378284,-1.64721,,,,-0.876278,-5.04219,-2.7246,-2.39181,-1.64721,,,,-2.14042,5.56412,4.89854,5.1212,4.60405,,,,5.39414,3.86664,3.78523,4.03902,4.60405,,,,5.01585,9.60554,9.48822,9.07642,7.80031,,,,7.82425,7.513,7.47949,7.13712,7.80031,,,,6.58166,10.17593996,9.82198156,9.5162446,9.20627032,,,,9.05496718,-0.26050612,0.00879648,0.17388101,-0.0684169,,,,-0.485027,-1,-1.0,0.0,1.0,,,,-1.0,-0.30654316,-0.30579894,0.04502438,0.116064,,,,-0.2021966,0.114843,0.0745256,0.389732,-0.0684169,,,,-0.376293,-0.72021,-0.067806,0.0140499,-0.0684169,,,,-0.593761,0.0244346,-0.399506,0.356134,0.575435,,,,-0.939511,-1.41965,-0.866818,-0.396452,0.575435,,,,-1.06901,0.224798,-0.0195477,0.182649,0.116064,,,,-0.0671952,-0.844216,-0.462425,-0.0916298,0.116064,,,,-0.337198,0.87919938,0.73520008,0.28679682,0.59099675,,,,1.14138616
Vdz0RsiozHP4K6UydnPn7SYRwwE2,2,1.55e-06,1.74e-06,7e-07,,,,,2.9e-06,3.27e-06,2.65e-06,1.59e-06,,,,,3.18e-06,8e-08,2e-07,1.9e-07,,,,,2.63e-06,370.18078491,219.15935549,220.72497711,,,,,96.09517221,-2.321505,-1.99517,-1.25545994,,,,,-2.880225,4.71853545,4.09767667,4.69368375,,,,,4.832695,8.18077091,8.66621333,8.27720438,,,,,8.15824,-0.344765,-1.09176,-0.572214,,,,,-2.70545,-3.15556,-2.78685,-2.28407,,,,,-3.055,5.41568,4.65433,5.2026,,,,,4.9129,4.22098,3.51469,3.85945,,,,,4.75249,9.08839,9.47625,9.07881,,,,,8.2576,7.58962,7.81707,7.3071,,,,,8.05888,9.7668167,9.81914365,9.6219768,,,,,9.91084713,-0.53100845,0.0940733,0.15107471,,,,,-0.4159995,-1,-1.0,0.0,,,,,-1.0,-0.367741,-0.42740219,-0.00897214,,,,,-0.410196,-0.236405,0.249233,0.358578,,,,,-0.299935,-0.800233,-0.072693,-0.111177,,,,,-0.532064,-0.224798,-0.0280998,0.36713,,,,,-0.757473,-1.17042,-1.09223,-0.788016,,,,,-1.10567,-0.175929,-0.00855211,0.106901,,,,,-0.394619,-0.503964,-0.742812,-0.224798,,,,,-0.425773,0.93250844,0.80241865,0.32869418,,,,,1.11423086
Vdz0RsiozHP4K6UydnPn7SYRwwE2,2,1.32e-06,8e-07,1.28e-06,,,,,3.82e-06,3.53e-06,1.24e-06,2.63e-06,,,,,3.82e-06,9e-08,6.4e-07,3.1e-07,,,,,3.82e-06,417.41932676,149.41451701,338.29858564,,,,,61.07372594,-2.194844,-1.72074571,-1.26584843,,,,,-2.1069,4.371014,3.88579,4.21259857,,,,,4.60884,8.499256,8.90266714,8.54695857,,,,,8.43477,-1.17555,-1.01035,-0.658405,,,,,-2.1069,-3.88818,-2.71502,-2.43251,,,,,-2.1069,5.43244,4.66869,4.64715,,,,,4.60884,3.20344,3.28245,3.4692,,,,,4.60884,10.003,9.77792,9.55047,,,,,8.43477,7.0605,8.19296,7.75482,,,,,8.43477,9.88288949,9.8947669,9.62723761,,,,,9.84000908,-0.41746523,0.05698496,0.15293441,,,,,-0.563829,-1,0.0,0.0,,,,,-1.0,-0.3753156,-0.18203799,-0.01125737,,,,,-0.61392,-0.0751364,0.168599,0.484416,,,,,-0.563829,-0.779464,-0.154549,-0.164934,,,,,-0.563829,-0.463647,0.241903,0.354913,,,,,-1.26327,-1.30603,-0.690889,-0.466701,,,,,-1.26327,-0.174097,-0.018326,0.0904081,,,,,-0.61392,-0.876592,-0.469145,-0.147829,,,,,-0.61392,0.98295715,0.41379886,0.3011009,,,,,1.51349001
Vdz0RsiozHP4K6UydnPn7SYRwwE2,2,1.56e-06,5.3e-07,9e-07,,,,,2.31e-06,2.94e-06,9.5e-07,1.65e-06,,,,,2.31e-06,2.8e-07,3.3e-07,4.9e-07,,,,,2.31e-06,366.91610013,69.92989423,367.94289198,,,,,76.10519036,-2.17014417,-1.45670029,-0.99787795,,,,,-1.59693,4.5615525,4.27673,4.36765368,,,,,5.51624,8.25181417,8.62904571,8.52575211,,,,,6.87375,-0.047884,-0.536301,-0.339977,,,,,-1.59693,-3.67989,-2.48039,-1.9417,,,,,-1.59693,5.4923,4.58011,4.7908,,,,,5.51624,3.71341,3.93607,3.95762,,,,,5.51624,9.19852,8.87291,9.02614,,,,,6.87375,6.72531,8.19775,7.91523,,,,,6.87375,9.78404063,9.76966679,9.64671988,,,,,8.95698209,-0.39655336,0.03726277,0.0391918,,,,,-0.318261,-1,0.0,0.0,,,,,-1.0,-0.34233914,-0.0907571,-0.03774507,,,,,-0.0775799,-0.0983493,0.199142,0.145386,,,,,-0.318261,-0.536951,-0.0610865,-0.149662,,,,,-0.318261,-0.410501,-0.363465,0.337808,,,,,-0.81184,-1.12888,-0.469145,-0.378126,,,,,-0.81184,0.0384845,0.0653626,0.103847,,,,,-0.0775799,-0.699441,-0.22602,-0.22602,,,,,-0.0775799,0.93187405,0.43898478,0.23337274,,,,,0.87543868
Vdz0RsiozHP4K6UydnPn7SYRwwE2,2,1.72e-06,7.2e-07,1.36e-06,,,,,2.67e-06,2.82e-06,1e-06,2.42e-06,,,,,2.92e-06,3.7e-07,4.2e-07,1.2e-07,,,,,2.41e-06,279.10691285,169.81277026,357.78759012,,,,,137.8210097,-1.91775565,-1.2100695,-0.81108243,,,,,-2.704255,4.386175,4.4983075,4.53922308,,,,,4.753685,8.331525,8.52794417,8.47713,,,,,7.662645,-0.0263362,-0.354342,0.593762,,,,,-1.7358,-3.75411,-2.8084,-2.40857,,,,,-3.67271,5.18105,4.71418,5.18345,,,,,4.75488,3.95043,4.09887,4.03184,,,,,4.75249,10.1634,10.0604,9.7444,,,,,8.20493,7.2688,7.75003,7.11796,,,,,7.12036,9.71407179,9.75157529,9.70368643,,,,,9.47800303,-0.368428,0.01476258,0.12005865,,,,,-0.3393355,-1,0.0,0.0,,,,,-1.0,-0.28367061,-0.07080951,-0.06940361,,,,,-0.1230895,-0.292604,0.213803,0.396452,,,,,-0.31093,-0.482584,-0.235183,-0.285274,,,,,-0.367741,-0.241292,0.174097,0.0702495,,,,,-0.616974,-1.28954,-0.606589,-0.858877,,,,,-1.19607,-0.0775799,0.0427606,0.250455,,,,,-0.11301,-0.557109,-0.228464,-0.445321,,,,,-0.133169,0.95517717,0.26166401,0.44955602,,,,,0.98573814
Vdz0RsiozHP4K6UydnPn7SYRwwE2,2,1.74e-06,7.1e-07,9.8e-07,,,,,2.38e-06,2.95e-06,1.12e-06,2.44e-06,,,,,3.24e-06,7.5e-07,5.6e-07,3e-07,,,,,7.1e-07,278.78101777,83.26411359,330.98967846,,,,,147.17986216,-1.85311175,-0.975808,-1.02918844,,,,,-2.75892,4.40234,4.51478,4.54994067,,,,,4.84267333,8.9869325,8.44298143,8.347304,,,,,7.60638,-0.361524,-0.531513,0.0287304,,,,,-2.17394,-2.85628,-1.44131,-1.56581,,,,,-3.21541,4.73334,4.74291,5.07092,,,,,5.6168,4.00311,4.26647,3.96959,,,,,4.17309,10.5177,9.01178,9.17698,,,,,7.88171,7.88889,7.67342,7.60398,,,,,7.22331,10.21832912,9.63165703,9.58109817,,,,,9.46246954,-0.33376144,0.15367623,0.09480626,,,,,-0.66278867,-1,0.0,0.0,,,,,-1.0,-0.323453,-0.13753196,-0.06617702,,,,,-0.25126937,0.14111,0.3317,0.284052,,,,,-0.596204,-0.61453,0.0610865,-0.10568,,,,,-0.736093,-0.394619,0.0586431,0.349415,,,,,-0.591928,-1.12521,-0.731817,-0.770912,,,,,-0.908967,-0.165544,-0.031765,0.155771,,,,,-0.0812451,-0.55039,-0.376293,-0.469755,,,,,-0.376293,0.85577133,0.47539232,0.32992428,,,,,1.00879651
Vdz0RsiozHP4K6UydnPn7SYRwwE2,2,1.5e-06,7.6e-07,1.11e-06,,,,,1.69e-06,2.83e-06,1.44e-06,1.97e-06,,,,,2.95e-06,7.5e-07,5.9e-07,2.4e-07,,,,,1.4e-07,260.42472196,204.72059847,273.14642975,,,,,141.33928257,-1.87838444,-1.0190752,-0.931744,,,,,-2.1468,4.97169222,4.90332357,4.9480175,,,,,5.80993,8.59119444,8.199115,8.10417167,,,,,6.50185333,-0.502782,-0.0335188,-0.497994,,,,,-1.35751,-3.16513,-1.70467,-1.48441,,,,,-2.79882,5.44441,5.24809,5.10923,,,,,6.05733,4.60405,4.54419,4.73813,,,,,5.46357,9.2081,9.08839,8.97107,,,,,7.31907,7.8865,7.31907,7.42681,,,,,6.04536,10.1424341,9.62481935,9.54904733,,,,,9.01963141,-0.38267308,0.01557701,0.06159559,,,,,-0.584598,-1,0.0,0.0,,,,,-1.0,-0.26912001,-0.11610804,-0.1147918,,,,,-0.12013666,-0.0739147,0.166766,0.328035,,,,,-0.460592,-0.77641,-0.144164,-0.349415,,,,,-0.689667,-0.389732,0.0555887,0.107512,,,,,-0.386678,-0.950506,-0.559553,-0.577268,,,,,-1.09345,-0.0268781,0.0122173,0.0109956,,,,,-0.00916298,-0.49419,-0.31032,-0.223577,,,,,-0.248011,0.81819878,0.30873499,0.30140636,,,,,0.94562288
Vdz0RsiozHP4K6UydnPn7SYRwwE2,2,1.72e-06,1.16e-06,8.3e-07,,,,,2.71e-06,2.79e-06,2.35e-06,2.29e-06,,,,,3.24e-06,2.9e-07,5.8e-07,6e-08,,,,,1.75e-06,284.7905103,144.76201136,303.8560068,,,,,181.28294821,-2.171883,-1.2489745,-0.90752847,,,,,-2.16496,4.60678429,4.71139,4.84863579,,,,,5.386355,8.89513286,8.42001,8.13600053,,,,,7.384315,-0.895431,-0.215478,-0.122104,,,,,-1.57778,-3.09331,-3.06218,-2.01592,,,,,-2.81319,5.09247,5.26485,5.14993,,,,,5.72932,4.00789,4.13718,4.08451,,,,,4.9153,10.6374,9.03811,8.70771,,,,,7.9679,7.96551,7.90326,7.27119,,,,,6.7732,10.3109486,9.79357755,9.53517718,,,,,9.4140692,-0.59943343,0.23915353,0.10420075,,,,,-0.522137,-1,-1.0,0.0,,,,,-1.0,-0.41338133,-0.15821417,-0.08433157,,,,,-0.20112724,-0.263283,0.302989,0.241903,,,,,-0.422719,-0.693943,0.0580322,-0.279776,,,,,-0.615141,-0.649961,-0.604146,0.175929,,,,,-0.498466,-0.961502,-0.915687,-0.567494,,,,,-1.06352,-0.0256563,0.128282,0.0684169,,,,,0.00244346,-0.546724,-0.55039,-0.398284,,,,,-0.45204,1.08313885,0.84617796,0.26107542,,,,,0.98961672
Vdz0RsiozHP4K6UydnPn7SYRwwE2,2,1.85e-06,8.2e-07,1.35e-06,,,,,1.74e-06,3.19e-06,1.09e-06,2.79e-06,,,,,2.83e-06,1.06e-06,5.1e-07,5.6e-07,,,,,6.5e-07,330.38167411,127.74939375,293.13423885,,,,,118.30761735,-2.12072967,-0.98401725,-0.69497087,,,,,-1.550245,4.4322,4.64594875,4.62777273,,,,,5.653905,8.52814667,8.39107875,8.48657364,,,,,7.132325,-0.818817,-0.35913,0.177171,,,,,-1.29287,-3.73256,-2.18351,-1.34554,,,,,-1.80762,4.84347,5.00867,4.99191,,,,,5.74608,3.87382,4.39097,4.38378,,,,,5.56173,9.59596,9.21768,9.50498,,,,,7.48427,7.94157,7.52019,7.69975,,,,,6.78038,9.89637059,9.66758418,9.71435915,,,,,9.24169698,-0.34527467,0.08834646,0.02848854,,,,,-0.234572,-1,0.0,0.0,,,,,-1.0,-0.45590911,-0.10575586,-0.12472758,,,,,-0.2251036,-0.189368,0.218079,0.233961,,,,,-0.224798,-0.544892,-0.0372628,-0.332311,,,,,-0.244346,-0.731206,-0.0488692,0.254731,,,,,-0.974941,-1.21745,-0.688445,-0.848492,,,,,-1.37078,-0.124617,-0.00549779,0.0879646,,,,,-0.0806342,-0.771523,-0.185092,-0.346971,,,,,-0.369573,1.10304282,0.44475428,0.37697886,,,,,1.22218271
Vdz0RsiozHP4K6UydnPn7SYRwwE2,2,1.72e-06,7.5e-07,1.18e-06,,,,,2.22e-06,2.88e-06,1.3e-06,2.44e-06,,,,,3e-06,1.21e-06,3e-07,5.2e-07,,,,,7.3e-07,293.44332634,122.12012173,330.85494889,,,,,177.28090964,-1.75494937,-0.65122253,-0.5200545,,,,,-2.12605,4.027645,4.31541333,4.36463071,,,,,4.61841333,8.8777,8.69813444,8.55910071,,,,,8.14188,0.100556,-0.0694318,0.337582,,,,,-1.18513,-3.11486,-1.49398,-1.17795,,,,,-3.14598,4.87459,4.4987,4.73813,,,,,4.65672,3.3447,4.00071,3.84269,,,,,4.54659,9.73722,9.97664,9.27993,,,,,8.90882,8.29351,8.18817,7.66384,,,,,7.71651,9.97606044,9.74667665,9.64328839,,,,,9.64265487,-0.26076316,0.12644916,0.11903147,,,,,-0.373646,-1,0.0,0.0,,,,,-1.0,-0.51770838,-0.11110977,-0.12387461,,,,,-0.25310167,-0.0800233,0.341474,0.362854,,,,,-0.321315,-0.454484,-0.11301,-0.086132,,,,,-0.453262,-0.563218,-0.0140499,0.249844,,,,,-0.640187,-1.25533,-0.689056,-0.700052,,,,,-1.45142,-0.257785,0.00610865,0.0714712,,,,,-0.215635,-0.772745,-0.21869,-0.392175,,,,,-0.314596,1.12543267,0.41728731,0.31231506,,,,,1.19297645
Vdz0RsiozHP4K6UydnPn7SYRwwE2,2,1.52e-06,7e-07,7.7e-07,9e-08,,,,2.19e-06,2.41e-06,1.56e-06,2.18e-06,9e-08,,,,2.43e-06,2.8e-07,1.9e-07,2e-08,9e-08,,,,1.95e-06,333.58136193,127.35048424,317.15958663,1.41421356,,,,113.29218076,-2.26469718,-0.7860163,-0.49583932,-0.438139,,,,-1.4089895,4.34656364,4.200387,4.3295555,4.43885,,,,4.92128,8.67441,8.680657,8.507557,8.34379,,,,7.633915,-0.797269,-0.28491,0.11971,-0.438139,,,,-0.466869,-3.44526,-1.54665,-1.08697,-0.438139,,,,-2.35111,4.86262,4.52744,4.63039,4.43885,,,,5.00388,3.4668,3.9624,3.9648,4.43885,,,,4.83868,9.40203,9.35175,9.15064,8.34379,,,,8.28394,7.86495,7.98466,7.91762,8.34379,,,,6.98389,10.01642939,9.68845417,9.56762328,9.46119372,,,,9.25240906,-0.28616245,0.03286453,0.08497135,-0.277944,,,,-0.295964,-1,0.0,0.0,0.0,,,,-1.0,-0.36302039,-0.08509347,-0.05247328,-0.0971276,,,,-0.0189368,-0.06353,0.307876,0.330478,-0.277944,,,,-0.279776,-0.497244,-0.108734,-0.154549,-0.277944,,,,-0.312152,-0.545503,0.040928,0.076969,-0.0109956,,,,-0.764803,-1.14232,-0.767247,-0.766025,-0.0109956,,,,-1.16797,0.0354302,-0.0177151,0.086132,-0.0971276,,,,0.0287107,-0.648128,-0.198531,-0.249233,-0.0971276,,,,-0.0665843,0.96962432,0.46075765,0.22134808,0.29463119,,,,1.01283575
Vdz0RsiozHP4K6UydnPn7SYRwwE2,3,1.11e-06,1.5e-06,9.4e-07,1.63e-06,1.32e-06,1.45e-06,1.11e-06,1.4e-06,1.92e-06,2.52e-06,1.72e-06,2.42e-06,3.01e-06,2.25e-06,1.46e-06,2.31e-06,4.9e-07,4.2e-07,6e-08,9.7e-07,3e-08,1.7e-07,9.4e-07,7.4e-07,171.49837465,350.78683889,184.89895454,304.41318084,626.28993455,316.88682045,89.6389078,472.93517248,-1.77230625,-1.40169609,-1.84462364,-1.50329411,-2.01450241,-2.06358527,-1.8321625,-1.46187153,6.14172625,6.40623182,6.51527545,6.73861444,6.722265,6.74294182,6.0088475,6.22027706,7.70065125,7.41005273,6.60342727,6.37416222,6.44236182,6.11544455,7.4244175,7.24147471,-1.1971,-0.445322,-0.61531,-0.617704,-0.632069,-0.921768,-1.403,-0.713472,-2.59531,-3.21541,-3.99353,-2.25055,-4.1276,-3.30639,-2.62644,-2.3128,6.66067,7.13712,6.71334,6.94558,7.26401,7.12993,6.18901,6.59363,5.71735,5.93044,5.77481,6.36618,5.79157,5.43484,5.64553,5.89692,8.45632,8.85376,8.24324,6.9767,7.46991,8.5904,7.8458,8.53054,6.90488,5.89213,5.71975,6.0717,4.84347,4.85305,7.02219,6.0693,10.03258733,9.94993408,9.5083991,9.41787837,9.58707991,9.4355976,9.74344497,9.68561843,0.1080468,-0.16804355,-0.10451356,0.13194694,-0.05059068,0.06886108,-0.00901015,-0.06144588,0,-1.0,0.0,0.0,1.0,1.0,0.0,0.0,-0.16852239,-0.27910993,-0.06169742,0.04058863,0.24334662,0.45870436,0.13805532,-0.10614679,0.513738,0.0916298,0.53634,0.286496,0.490525,0.458149,0.0812451,0.314596,-0.199142,-0.522901,-0.291383,-0.0494801,-0.385456,-0.34575,-0.129503,-0.47281,0.251066,0.248011,0.43066,0.194255,1.88208,1.73791,0.957837,0.233961,-0.668287,-1.05741,-0.919352,-0.0849103,-0.192423,-0.171042,-0.076969,-0.304211,0.222966,0.0207694,0.334143,0.151495,0.955393,0.939511,0.288328,0.0329867,-0.580322,-0.496023,-0.356134,-0.0586431,-0.379347,-0.334143,0.054367,-0.253509,0.50208936,0.70625045,0.42671469,0.18710611,0.91367551,1.083011,0.49220156,0.28313831
Vdz0RsiozHP4K6UydnPn7SYRwwE2,3,1.27e-06,1.82e-06,7.5e-07,1.73e-06,1.54e-06,1.57e-06,7.4e-07,1.26e-06,2.2e-06,2.89e-06,1.01e-06,3.63e-06,3.78e-06,2.56e-06,7.4e-07,2.28e-06,6.1e-07,5.1e-07,5.3e-07,1e-07,6e-08,8e-08,7.4e-07,5.8e-07,267.72639393,269.24856088,75.12481961,407.39598461,463.82142776,525.18503288,12.52996409,526.97780913,-1.544499,-1.30654943,-1.698685,-1.64062683,-1.99257563,-1.794155,-2.63362,-1.3101074,6.233784,6.60286714,6.29555167,6.5415575,6.93540438,6.5628075,5.53779,6.1183825,7.377254,7.25203714,6.38373833,6.50364917,5.8970675,6.60590125,8.52096,7.426933,-1.11091,-0.474052,-1.17555,-0.323217,-0.778116,-1.04148,-2.63362,-0.758962,-2.06859,-2.36068,-2.04944,-2.44927,-3.72538,-2.76291,-2.63362,-2.07817,6.4428,7.02219,6.6463,6.95516,7.37893,7.08684,5.53779,6.37097,6.03339,5.91847,6.07648,5.92565,6.42125,5.42047,5.53779,5.55455,7.9679,8.0924,7.94396,7.98945,7.08444,8.05409,8.52096,8.77714,6.72771,5.87298,5.60243,5.35822,4.81713,5.10683,8.52096,6.39491,9.78930018,9.94410844,9.15913165,9.41376363,9.36859533,9.5379381,10.49808705,9.73165775,0.03940061,-0.09215321,-0.2432263,0.1709914,-0.08624644,0.1005255,0.167988,0.02797757,0,-1.0,0.0,0.0,1.0,1.0,1.0,0.0,-0.1449585,-0.31319931,-0.11891502,0.09213887,0.20471619,0.44688619,0.124617,-0.08741483,0.356745,0.168599,0.0354302,0.587652,0.321926,0.521679,0.167988,0.398284,-0.246179,-0.311541,-0.450208,-0.237627,-0.43799,-0.348804,0.167988,-0.263283,0.507629,-0.219301,-0.054367,0.356134,1.76723,1.50639,0.814283,0.241292,-0.798401,-1.42271,-0.318872,-0.359189,-0.206472,-0.233351,0.814283,-0.300546,0.339641,-0.0989602,-0.013439,0.378126,0.900415,0.89675,0.124617,-0.00855211,-0.577879,-0.618806,-0.252287,-0.0708604,-0.469755,-0.306654,0.124617,-0.213803,0.55420216,0.88332738,0.37117627,0.36105913,0.82684132,1.03532214,0.84071765,0.26731549
Vdz0RsiozHP4K6UydnPn7SYRwwE2,3,1.09e-06,1.22e-06,1.22e-06,1.87e-06,1.38e-06,1.58e-06,1.14e-06,1.65e-06,1.95e-06,2.25e-06,2.76e-06,3.23e-06,3.27e-06,2.91e-06,1.54e-06,2.68e-06,5.4e-07,1.4e-07,2.8e-07,9e-07,1.2e-07,1.2e-07,8.8e-07,8.8e-07,159.93973956,321.80990085,255.87778147,259.59360819,470.81903502,459.00391004,91.2625541,464.08406935,-1.46114771,-1.34775054,-1.5981295,-1.07123571,-1.6542435,-1.45200267,-1.468245,-1.228568,6.64835429,6.61978462,7.083484,7.30163286,7.25158812,7.095296,6.588845,6.805005,7.37037714,6.91003462,6.103299,5.45330857,6.03248938,5.885108,7.587225,6.68067714,-0.931344,-0.574608,-0.943315,-0.181959,-0.328006,-0.691924,-1.0319,-0.682347,-1.96325,-2.33435,-2.73657,-1.93212,-3.20584,-2.45885,-2.13563,-1.91536,7.03416,7.21852,7.81946,7.69018,8.23366,7.59441,6.74447,7.05811,6.33027,6.19141,6.74686,6.99346,6.1507,6.11,6.24887,6.60081,8.41801,8.11874,7.50822,6.11958,7.6375,8.0924,8.53054,7.91284,6.67264,5.48033,5.0781,4.69742,4.72137,4.24971,6.73728,5.31513,10.05143583,9.70551716,9.5135174,9.20086522,9.63422855,9.40209879,10.17910288,9.64405791,-0.15236744,-0.03477227,-0.11307121,0.14748027,-0.05085448,0.21836409,-0.09666938,-0.06143557,0,0.0,0.0,0.0,1.0,1.0,0.0,0.0,-0.24774943,-0.1588719,-0.23054055,0.03586647,0.30214921,0.46938886,0.08048148,-0.05353798,0.138666,0.426384,0.516792,0.364687,0.207694,0.594983,0.00244346,0.346361,-0.687834,-0.634078,-0.343917,-0.135612,-0.237627,-0.136223,-0.149662,-0.40256,0.0213803,0.255342,0.00855211,0.231518,1.49723,1.62612,0.417221,0.163101,-0.468534,-1.07268,-0.924239,-0.16249,-0.540005,0.0268781,0.152105,-0.181427,-0.122173,0.241903,0.0329867,0.241903,0.857655,0.935846,0.149051,0.0152716,-0.564439,-0.530842,-0.377515,-0.201586,-0.229074,-0.00061087,0.0177151,-0.143553,0.42955273,0.57234372,0.56552446,0.2915637,0.89801233,0.95884816,0.29376903,0.25350082
Vdz0RsiozHP4K6UydnPn7SYRwwE2,3,6.8e-07,1.02e-06,8.8e-07,9.2e-07,7.3e-07,1.71e-06,9.2e-07,1.05e-06,1.54e-06,2.29e-06,1.96e-06,2.5e-06,3e-06,3.09e-06,1.46e-06,2.03e-06,4e-08,7e-08,6e-08,1.2e-07,3e-08,3.2e-07,4.7e-07,4.2e-07,155.56710151,304.13850977,313.51546734,222.75537135,372.20311581,613.38437491,130.60735548,411.79805441,-1.38515545,-1.30978767,-1.36589172,-1.75560336,-1.80794905,-1.3679714,-1.80163575,-1.36343458,7.28076636,7.096574,7.57059833,7.61813182,7.55251045,7.52132211,6.980595,7.21662842,6.23363,6.42938867,5.62078611,5.52973364,5.69080045,5.73512105,6.32338625,6.28893789,-1.04387,-0.73502,-0.804452,-0.493206,-0.768539,-0.0191536,-0.972046,-0.634463,-2.1452,-1.88184,-2.16675,-2.727,-3.05261,-2.59292,-2.61926,-2.07098,7.56568,7.37654,7.8027,8.04931,8.19775,8.3007,7.2664,7.49864,6.79714,6.76123,7.27119,7.38611,6.2369,6.5242,6.5673,6.92643,7.36935,7.64469,6.40688,5.89931,7.93678,7.50582,6.70855,6.95276,5.61919,5.45878,4.9967,5.01106,4.69024,3.21541,5.77721,5.47075,9.70549758,9.68548211,9.54310004,9.60096852,9.68349697,9.66614797,9.61010264,9.68825907,-0.12656025,-0.03974697,-0.11304406,0.01949221,0.01518838,0.13519423,-0.00572683,-0.10265744,0,0.0,0.0,0.0,0.0,1.0,0.0,0.0,-0.15599285,-0.18541801,-0.09183343,-0.02188007,0.14849587,0.57723544,0.07696912,-0.0434357,-0.0507018,0.244346,0.0458149,0.140499,0.26145,0.508851,0.109956,0.0690278,-0.192423,-0.324369,-0.23274,-0.117286,-0.215635,-0.31032,-0.086132,-0.306654,0.0500909,0.145386,0.0965167,0.174097,1.46974,1.50456,0.712269,0.24679,-0.549779,-1.64017,-1.29015,-0.406836,-0.0561996,0.351248,-0.0879646,-0.193033,0.0109956,0.0940733,0.0549779,0.109345,0.794125,0.885755,0.210138,0.06353,-0.419054,-0.540005,-0.389121,-0.178984,-0.207083,-0.00122173,-0.00855211,-0.203418,0.27067723,0.46494663,0.32763571,0.16362881,0.38697733,1.14133314,0.37386533,0.19410971
Vdz0RsiozHP4K6UydnPn7SYRwwE2,3,9e-07,2.05e-06,9.8e-07,1.41e-06,1.51e-06,1.64e-06,1.17e-06,1.78e-06,1.88e-06,3.07e-06,2.66e-06,3.26e-06,2.87e-06,2.83e-06,1.74e-06,2.53e-06,1.2e-07,2.6e-07,3e-08,1.4e-07,1.3e-07,8.8e-07,6e-08,9e-07,127.93866734,388.55079118,82.36015083,271.33328316,654.50431132,253.29262164,164.90290687,404.25063014,-1.5155295,-1.07951911,-1.6783355,-1.01248111,-1.10334837,-1.37337388,-1.61232414,-1.31855136,6.6663575,7.20175889,7.6009925,7.5984,7.89998368,7.0964125,6.76157,6.89399545,6.848315,6.62076667,5.2073875,5.06852444,4.85846526,6.75254625,6.81218857,7.00630364,-0.651223,-0.636858,-0.907402,-0.418985,0.553061,-0.445322,-0.457293,-0.509965,-2.12605,-1.5706,-2.1069,-1.70467,-2.28167,-2.86586,-2.57377,-2.04225,7.38851,8.30788,7.90087,8.02058,8.30549,7.83143,7.82665,7.08444,6.4021,6.70137,7.29513,7.25204,7.41724,5.81073,5.70778,6.72771,8.11395,7.95833,6.84502,6.00705,7.28556,9.31105,7.9703,7.94636,5.05655,4.47237,4.46997,3.4261,3.12204,4.25689,6.03578,5.65271,9.72365517,9.90451243,9.39889563,9.23603428,9.40311534,10.09073879,9.79117602,9.94438939,-0.11904239,-0.47749288,-0.22754735,0.15977513,0.18631368,0.61537112,0.01649329,-0.15366055,0,-1.0,0.0,0.0,1.0,1.0,0.0,0.0,-0.15111286,-0.3567453,-0.11682785,0.05898224,0.34980076,0.55489475,0.05279621,-0.18586967,0.328035,0.0946841,0.0201586,0.551,1.20279,1.11972,0.135001,0.333532,-0.737925,-0.911411,-0.590707,-0.378126,-0.194866,0.161268,-0.219301,-0.726319,0.184481,-0.19059,0.280387,0.318872,1.33841,1.22601,0.286496,0.0610865,-0.395841,-0.921185,-0.468534,-0.208305,-0.208916,0.330478,-0.172264,-0.483194,0.0238237,-0.0103847,0.0806342,0.174707,0.968832,0.711047,0.168599,-0.0299324,-0.38118,-0.474642,-0.302378,-0.155771,-0.103847,0.171653,-0.11973,-0.327424,0.43197536,0.897258,0.4003085,0.34000446,0.78597684,1.19807757,0.19763443,0.43206476
Vk2LE9pv1cgXgDCkG2IKoMy728q1,1,1.57e-06,,,,,,,1.38e-06,3.47e-06,,,,,,,3.45e-06,6e-08,,,,,,,1.9e-07,290.40416221,,,,,,,176.96469024,1.41816589,,,,,,,1.45886583,7.34674111,,,,,,,7.1028,6.30020889,,,,,,,6.88971333,2.09732,,,,,,,2.54982,0.459687,,,,,,,0.349553,7.99903,,,,,,,7.35978,6.98628,,,,,,,6.90248,7.50103,,,,,,,7.1419,4.72855,,,,,,,6.72771,9.84336857,,,,,,,10.03227792,-0.50016289,,,,,,,-0.4028655,0,,,,,,,0.0,0.18475283,,,,,,,0.03878987,-0.156992,,,,,,,-0.119119,-0.913854,,,,,,,-0.808175,0.680504,,,,,,,0.739147,0.0739147,,,,,,,0.10568,0.321926,,,,,,,0.266337,0.0287107,,,,,,,-0.072693,0.64811077,,,,,,,0.58793883
Vk2LE9pv1cgXgDCkG2IKoMy728q1,1,2.82e-06,2e-08,,,,,,1.16e-06,4.05e-06,2e-08,,,,,,2.36e-06,1.77e-06,2e-08,,,,,,1.4e-07,312.09650701,1.41421356,,,,,,212.72748779,1.4379562,1.40061,,,,,,1.1643006,7.682516,8.28394,,,,,,7.257544,5.538746,5.55455,,,,,,6.597222,3.60088,1.40061,,,,,,3.62722,-0.871489,1.40061,,,,,,-1.10612,8.24324,8.28394,,,,,,8.03494,7.24725,8.28394,,,,,,6.71334,6.06212,5.55455,,,,,,7.57525,4.67588,5.55455,,,,,,5.38695,9.70509299,10.07166302,,,,,,10.01969311,-0.5015204,-0.466701,,,,,,-0.44501521,1,0.0,,,,,,0.0,0.0880868,0.0836885,,,,,,0.12663232,-0.395841,-0.466701,,,,,,0.00061087,-0.616974,-0.466701,,,,,,-0.605978,1.09467,0.248011,,,,,,0.985326,0.446543,0.248011,,,,,,-0.0250455,0.321315,0.0836885,,,,,,0.417832,-0.131336,0.0836885,,,,,,-0.208305,0.95106555,0.53509162,,,,,,0.7025585
Vk2LE9pv1cgXgDCkG2IKoMy728q1,1,1.63e-06,,,,3e-08,,,1.22e-06,3.74e-06,,,,3e-08,,,3.14e-06,1.6e-07,,,,3e-08,,,3.9e-07,283.75178544,,,,1.0,,,242.258207,0.80099356,,,,-0.265756,,,1.30909678,7.78328556,,,,6.61757,,,7.32147,5.18477556,,,,8.02776,,,6.84289333,3.24175,,,,-0.265756,,,3.5937,-1.22344,,,,-0.265756,,,-1.75016,8.42759,,,,6.61757,,,7.75482,7.12993,,,,6.61757,,,7.0198,6.79953,,,,8.02776,,,7.41005,3.92888,,,,8.02776,,,5.97353,9.56071336,,,,10.40710284,,,10.22779633,-0.44362394,,,,-0.260229,,,-0.42047894,1,,,,0.0,,,0.0,-0.02653883,,,,0.108734,,,0.22954974,0.0329867,,,,-0.260229,,,-0.0568105,-0.82589,,,,-0.260229,,,-0.703717,1.53877,,,,-0.0158825,,,1.15087,0.215635,,,,-0.0158825,,,0.0598648,0.243735,,,,0.108734,,,0.672563,-0.299324,,,,0.108734,,,-0.076969,0.99840344,,,,0.28247915,,,0.7121064
Vk2LE9pv1cgXgDCkG2IKoMy728q1,1,1.97e-06,,,,1.8e-07,,,1.1e-06,3.07e-06,,,,1.8e-07,,,2.41e-06,7e-08,,,,1.8e-07,,,2.1e-07,267.24532715,,,,6.08276253,,,267.63885327,1.469014,,,,-0.277727,,,0.49360452,7.64639714,,,,6.86178,,,7.26600333,5.69478,,,,8.11874,,,6.56988833,2.9305,,,,-0.277727,,,2.20027,-0.687136,,,,-0.277727,,,-1.39582,8.28873,,,,6.86178,,,7.74285,7.09402,,,,6.86178,,,6.75883,7.01501,,,,8.11874,,,8.11395,4.64954,,,,8.11874,,,5.4109,9.74565995,,,,10.63367746,,,9.87832883,-0.50754171,,,,-0.236405,,,-0.31469739,1,,,,0.0,,,1.0,-0.00061096,,,,0.00061087,,,0.07844527,-0.318261,,,,-0.236405,,,0.0519235,-0.68478,,,,-0.236405,,,-0.615752,1.24922,,,,-0.0500909,,,1.07573,0.470366,,,,-0.0500909,,,0.102014,0.166766,,,,0.00061087,,,0.252898,-0.231518,,,,0.00061087,,,-0.109345,0.97650956,,,,0.24165429,,,0.6921079
Vk2LE9pv1cgXgDCkG2IKoMy728q1,1,1.71e-06,,,,,,,1.14e-06,2.1e-06,,,,,,,2.31e-06,1.7e-07,,,,,,,4.5e-07,365.42641233,,,,,,,125.92231564,1.4712382,,,,,,,1.32918,7.4905,,,,,,,7.31668,6.11551,,,,,,,6.70895333,2.0231,,,,,,,1.63524,0.864307,,,,,,,0.88346,8.26239,,,,,,,7.38611,7.04374,,,,,,,7.19218,7.34062,,,,,,,7.37654,5.24091,,,,,,,6.00705,9.81563816,,,,,,,10.02388229,-0.39950586,,,,,,,-0.31938067,0,,,,,,,0.0,0.14141516,,,,,,,0.08684465,-0.0470366,,,,,,,-0.122784,-0.613309,,,,,,,-0.605367,0.505796,,,,,,,0.520457,0.229685,,,,,,,-0.0146608,0.249233,,,,,,,0.144164,0.0800233,,,,,,,0.054367,0.56776965,,,,,,,0.44558945
Vk2LE9pv1cgXgDCkG2IKoMy728q1,1,1.49e-06,,,,,,6e-08,1.05e-06,2.71e-06,,,,,,6e-08,1.94e-06,1.9e-07,,,,,,6e-08,1.9e-07,325.89480778,,,,,,1.0,153.18900748,1.11689337,,,,,,0.0766145,1.75106037,7.182605,,,,,,7.15148,7.17243,6.2282175,,,,,,7.45076,7.02548625,2.59531,,,,,,0.0766145,2.77249,-0.497994,,,,,,0.0766145,0.275333,7.67581,,,,,,7.15148,7.66863,6.67503,,,,,,7.15148,6.73968,7.13712,,,,,,7.45076,7.46512,4.8722,,,,,,7.45076,6.51462,9.63480764,,,,,,10.32779553,10.2238604,-0.39339725,,,,,,0.108734,-0.28168534,0,,,,,,0.0,0.0,0.04085163,,,,,,-0.0482584,0.0722347,-0.11973,,,,,,0.108734,0.102014,-0.654237,,,,,,0.108734,-0.611476,0.606589,,,,,,-0.0366519,0.427606,0.182649,,,,,,-0.0366519,-0.0806342,0.212581,,,,,,-0.0482584,0.230907,-0.189979,,,,,,-0.0482584,-0.147829,0.6183212,,,,,,0.12448019,0.43038282
Vk2LE9pv1cgXgDCkG2IKoMy728q1,1,1.37e-06,,,,,,,1.06e-06,2.44e-06,,,,,,,1.94e-06,5e-08,,,,,,,4.2e-07,242.61782068,,,,,,,228.87350771,1.13694615,,,,,,,1.60759709,7.33912625,,,,,,,7.14429727,5.95767125,,,,,,,6.75730727,2.58334,,,,,,,3.05979,-0.0454898,,,,,,,0.105345,8.05649,,,,,,,7.6399,6.71095,,,,,,,6.92403,7.36696,,,,,,,7.43878,3.36864,,,,,,,5.49709,9.63595529,,,,,,,10.01665155,-0.48105642,,,,,,,-0.26167251,0,,,,,,,0.0,0.01015573,,,,,,,0.05842088,-0.00733038,,,,,,,0.0855211,-0.876592,,,,,,,-0.544892,0.5791,,,,,,,0.767247,0.133169,,,,,,,0.0464258,0.210749,,,,,,,0.280387,-0.106901,,,,,,,-0.0934624,0.65513765,,,,,,,0.44381952
Vk2LE9pv1cgXgDCkG2IKoMy728q1,1,2.03e-06,,,,,,,1.26e-06,3.16e-06,,,,,,,2.09e-06,4.7e-07,,,,,,,5.8e-07,313.44934489,,,,,,,245.46356922,0.85622625,,,,,,,1.62247167,7.4830775,,,,,,,7.31774333,6.01782625,,,,,,,6.73648667,1.68552,,,,,,,2.86347,-0.430956,,,,,,,0.296881,8.07085,,,,,,,7.77397,6.94797,,,,,,,7.00304,6.70855,,,,,,,7.10599,5.50427,,,,,,,6.15789,9.6786355,,,,,,,10.11936123,-0.39576425,,,,,,,-0.22011509,0,,,,,,,0.0,0.06055196,,,,,,,0.03739859,-0.314596,,,,,,,-0.013439,-0.499688,,,,,,,-0.533896,0.648128,,,,,,,0.629191,0.175318,,,,,,,-0.139277,0.258396,,,,,,,0.235794,-0.215025,,,,,,,-0.146608,0.58976174,,,,,,,0.36236504
Vk2LE9pv1cgXgDCkG2IKoMy728q1,1,1.16e-06,5e-08,,,1.6e-07,,,1.08e-06,2.05e-06,5e-08,,,1.6e-07,,,1.44e-06,6e-08,5e-08,,,1.6e-07,,,7.1e-07,317.94653486,2.82842712,,,4.0,,,175.8521194,0.93594826,0.320823,,,0.670376,,,1.73499844,7.32846769,7.95833,,,7.05811,,,7.26719889,6.11681692,5.31992,,,7.2281,,,6.61278444,2.07817,0.320823,,,0.670376,,,2.56658,-0.011971,0.320823,,,0.670376,,,0.641646,7.95833,7.95833,,,7.05811,,,7.40766,6.84023,7.95833,,,7.05811,,,7.0605,6.87136,5.31992,,,7.2281,,,7.27598,5.05177,5.31992,,,7.2281,,,6.2752,9.62624227,9.57807353,,,10.12480866,,,9.99391609,-0.25308612,-0.35308,,,-0.216246,,,-0.23301121,0,0.0,,,0.0,,,0.0,0.07983545,-0.00671952,,,-0.0146608,,,0.08687874,0.0164934,-0.35308,,,-0.216246,,,0.0427606,-0.492968,-0.35308,,,-0.216246,,,-0.543059,0.361632,0.17654,,,0.161268,,,0.410501,0.0433714,0.17654,,,0.161268,,,0.0238237,0.265116,-0.00671952,,,-0.0146608,,,0.280998,-0.0574213,-0.00671952,,,-0.0146608,,,-0.102014,0.37994822,0.39481263,,,0.27015669,,,0.35067975
Vk2LE9pv1cgXgDCkG2IKoMy728q1,2,5.6e-07,5.1e-07,1.38e-06,,,1.2e-07,1.2e-07,1.13e-06,1.38e-06,1.75e-06,4.08e-06,,,1.9e-07,1.2e-07,1.72e-06,2e-08,4e-08,3e-08,,,4e-08,1.2e-07,2.8e-07,245.23245763,161.60406008,296.70100325,,,5.39834564,8.12310563,182.39930922,0.66732973,1.16152957,1.22523199,,,1.080985,0.94331467,0.74699075,6.59243455,6.83732643,6.74686083,,,6.80552,6.77639,6.67383875,7.10076727,6.78294357,6.56390417,,,6.71214,7.12035667,6.85699375,1.47004,2.48997,3.12443,,,1.12049,1.01035,1.3623,0.0837971,0.325611,0.0526724,,,1.04148,0.849942,0.169988,7.1036,7.12993,7.50103,,,6.83784,6.8546,7.21134,6.24887,6.51702,6.12197,,,6.7732,6.69419,6.33506,8.11874,8.73644,7.72609,,,6.86896,7.20655,7.68778,6.17465,4.707,2.96642,,,6.55532,7.02698,6.21535,9.72968615,9.74798101,9.60339441,,,9.62015119,9.87508861,9.61682378,-0.04120569,0.11362087,-0.05548691,,,-0.185703,-0.1400919,-0.15997025,0,0.0,0.0,,,0.0,0.0,0.0,0.05222897,-0.06592979,-0.30288731,,,0.01740965,0.0720821,0.10468705,0.301767,0.657902,0.38118,,,-0.168599,-0.0965167,0.233961,-0.422719,-0.189979,-0.674395,,,-0.202807,-0.185703,-0.542448,0.18387,0.086132,0.199753,,,0.246179,0.296881,0.101404,-0.142942,-0.879035,-1.57053,,,0.147219,0.18326,-0.0849103,0.149662,0.114232,0.0403171,,,0.0213803,0.0983493,0.212581,-0.076969,-0.389732,-0.671341,,,0.013439,0.0384845,0.018326,0.1951877,0.39322737,0.66694746,,,0.27505554,0.30877211,0.3520078
Vk2LE9pv1cgXgDCkG2IKoMy728q1,2,1.42e-06,1.08e-06,1.21e-06,,6e-08,,,2.14e-06,2.2e-06,1.88e-06,2.96e-06,,6e-08,,,3.38e-06,1.9e-07,4.7e-07,4e-08,,6e-08,,,1.4e-07,182.99484941,212.52391264,234.00982408,,1.0,,,309.2922876,-0.0458891,0.50677369,0.52299967,,0.739808,,,0.74699043,6.749655,6.85859,6.92669111,,6.71574,,,6.98628143,7.35778,6.48802111,6.68913222,,6.74686,,,6.81560714,1.28329,1.15401,1.49877,,0.739808,,,2.00155,-0.976834,-0.440533,-0.131681,,0.739808,,,-0.500388,7.05332,7.13712,7.16106,,6.71574,,,7.33823,6.40928,6.40449,6.61757,,6.71574,,,6.59603,8.03494,7.41963,7.49864,,6.74686,,,7.56328,6.61278,5.9448,5.72932,,6.74686,,,6.05254,10.03598942,9.47407002,9.67202425,,9.54822494,,,9.83059072,0.03868811,0.09991043,-0.14192423,,-0.0818559,,,-0.35360357,0,0.0,0.0,,0.0,,,0.0,-0.0147626,-0.18251287,-0.22337305,,0.099571,,,0.29967314,0.262061,0.351858,-0.00855211,,-0.0818559,,,-0.298713,-0.253509,-0.0592539,-0.363465,,-0.0818559,,,-0.442877,0.733038,-0.0641408,0.0610865,,0.152716,,,0.483805,-0.258396,-0.671952,-0.675617,,0.152716,,,0.263283,0.108734,0.21197,0.0580322,,0.099571,,,0.59315,-0.182038,-0.364687,-0.496023,,0.099571,,,0.127671,0.39333254,0.45777379,0.41595636,,0.19984231,,,0.59773562
Vk2LE9pv1cgXgDCkG2IKoMy728q1,2,1.93e-06,1.49e-06,1.5e-06,1.7e-07,,,,1.37e-06,3.78e-06,2e-06,2.19e-06,1.7e-07,,,,2.53e-06,8.3e-07,1.17e-06,6.2e-07,1.7e-07,,,,3.3e-07,288.99831036,139.17572634,333.37864508,2.82842712,,,,189.22497351,-0.10671287,0.98641,0.60034598,-0.28491,,,,0.68576851,6.14249571,5.92485,6.31770083,6.49786,,,,6.51462143,8.36397143,7.39329333,7.09182583,7.02459,,,,6.69042571,1.51553,1.79086,1.62327,-0.28491,,,,1.54426,-1.60172,-0.1652,-0.0622492,-0.28491,,,,-0.289698,6.41885,6.11,6.78996,6.49786,,,,6.87854,5.65271,5.63116,5.9472,6.49786,,,,6.17943,9.26556,7.87932,7.69257,7.02459,,,,7.5154,6.96473,6.82826,6.22971,7.02459,,,,5.92086,10.42949405,9.56434289,9.53565026,9.57330784,,,,9.39005805,-0.35220737,0.05273807,0.08939006,0.040928,,,,-0.1356992,0,0.0,0.0,0.0,,,,0.0,0.12278391,-0.1732821,-0.20942512,-0.0830777,,,,0.09197893,0.0299324,0.263283,0.319483,0.040928,,,,0.224798,-0.570548,-0.140499,-0.107512,0.040928,,,,-0.451429,0.497855,-0.211359,0.0274889,0.0519235,,,,0.361021,-0.489914,-0.445932,-0.708604,0.0519235,,,,-0.0580322,0.463036,0.0647517,0.125227,-0.0830777,,,,0.227853,-0.0788016,-0.412945,-0.429438,-0.0830777,,,,-0.0232129,0.49959638,0.45229388,0.4544665,0.10617465,,,,0.39017439
Vk2LE9pv1cgXgDCkG2IKoMy728q1,2,8.6e-07,9.3e-07,2.42e-06,,,,1.1e-07,1.34e-06,2.18e-06,1.66e-06,3.4e-06,,,,2e-07,2.3e-06,2e-08,6e-08,1.42e-06,,,,3e-08,1.3e-07,156.2520668,232.7847192,286.87785078,,,,9.39834564,263.39627004,0.45920748,0.57663397,1.2148178,,,,0.3907332,0.47378598,6.377435,6.67742846,6.659714,,,,6.725792,6.58458556,7.70095,7.12109308,6.147352,,,,7.151002,6.59921889,1.54665,1.14682,2.25294,,,,1.01035,1.06542,-0.339977,-0.220267,0.361524,,,,-0.521936,0.0574608,6.94318,7.17303,6.93121,,,,6.97192,6.98867,5.68862,6.2752,6.47632,,,,6.359,6.2752,8.79869,8.40844,7.06768,,,,7.60159,7.54892,6.71574,5.71257,5.03022,,,,6.68461,5.67426,10.04885061,9.81863462,9.19230503,,,,9.84425522,9.34950824,-0.06353004,0.10859297,0.11691968,,,,-0.07843517,-0.28133733,0,0.0,0.0,,,,0.0,0.0,0.10177011,-0.11512454,-0.4054924,,,,0.01795942,0.12577043,0.366519,0.667676,0.401338,,,,-0.00061087,0.38851,-0.578489,-0.151495,-0.144775,,,,-0.153327,-0.59315,0.40928,0.122784,0.0568105,,,,0.156382,0.164934,-0.610865,-0.646295,-0.664011,,,,-0.131947,0.00305433,0.263283,0.0177151,-0.189979,,,,0.108734,0.271835,-0.0928515,-0.253509,-0.646906,,,,-0.0946841,-0.0507018,0.33195207,0.33333133,0.63152902,,,,0.16116372,0.45914081
Vk2LE9pv1cgXgDCkG2IKoMy728q1,2,1.62e-06,1.15e-06,2.01e-06,,,,,2.17e-06,2.97e-06,1.82e-06,2.95e-06,,,,,3.63e-06,4.5e-07,2.9e-07,3.5e-07,,,,,2.4e-07,290.91679889,256.95415893,198.90374492,,,,,181.96001998,0.2412824,0.50445874,0.4443648,,,,,0.44113175,6.64976333,6.662585,6.658754,,,,,6.7875625,7.05571333,6.768408,7.104074,,,,,7.42801,1.47962,1.1157,1.10852,,,,,0.699107,-0.893037,-0.579397,-0.392649,,,,,0.248997,7.18261,6.96234,7.10599,,,,,7.05811,6.28478,6.33985,6.46913,,,,,6.49068,7.87692,8.14268,7.65905,,,,,7.94875,6.00466,6.13634,6.4811,,,,,6.54814,9.7479773,9.53775423,9.76658953,,,,,10.080452,-0.04839418,0.09095778,0.09236288,,,,,-0.35796675,0,0.0,0.0,,,,,0.0,0.21414223,-0.13970483,-0.3152064,,,,,0.08170312,0.175318,0.265726,0.318872,,,,,-0.266948,-0.357967,-0.054367,-0.103847,,,,,-0.433714,0.282831,0.0910189,-0.0177151,,,,,0.383623,-0.133779,-0.419664,-0.473421,,,,,0.105069,0.455705,0.145386,-0.163712,,,,,0.125227,-0.117897,-0.359189,-0.456927,,,,,0.0372628,0.35626672,0.31623959,0.46928824,,,,,0.45466274
Vk2LE9pv1cgXgDCkG2IKoMy728q1,2,1.47e-06,1.25e-06,1.7e-06,,,,,1.71e-06,2.58e-06,2.09e-06,2.94e-06,,,,,2.32e-06,3e-08,3.8e-07,1.2e-07,,,,,1.3e-06,286.03459357,278.08090967,207.85653835,,,,,141.16893212,0.0188535,0.19197139,0.6256853,,,,,0.5980722,6.70286625,6.65087636,6.650295,,,,,6.79714,6.70466125,6.61801,7.32147,,,,,7.336792,1.25456,1.02472,1.46525,,,,,1.49159,-1.17795,-1.17795,-0.395043,,,,,-0.244209,7.38851,7.00304,6.936,,,,,6.95516,6.20577,6.24408,6.27281,,,,,6.54335,8.95431,7.37893,7.94875,,,,,8.27676,5.30316,5.67905,6.47153,,,,,6.87136,9.55086676,9.42666477,9.93906021,,,,,10.04047614,-0.13332148,0.07696904,0.00804303,,,,,-0.09798262,0,0.0,0.0,,,,,0.0,0.15195261,-0.13483449,-0.26124657,,,,,0.13145826,0.307876,0.350026,0.422108,,,,,0.299935,-0.368352,-0.164934,-0.18387,,,,,-0.334754,0.273668,0.130725,0.106901,,,,,0.291994,-0.393397,-0.384845,-0.610254,,,,,-0.00427606,0.425162,0.0983493,-0.0855211,,,,,0.28222,-0.00671952,-0.306043,-0.421497,,,,,0.0439823,0.36015664,0.31001376,0.46340656,,,,,0.31889546
Vk2LE9pv1cgXgDCkG2IKoMy728q1,2,1.78e-06,9.3e-07,1.09e-06,1.4e-07,,,1.8e-07,2.33e-06,3.32e-06,2.35e-06,2.4e-06,1.4e-07,,,1.8e-07,3.12e-06,6e-08,4e-08,1.1e-07,1.4e-07,,,1.8e-07,6.8e-07,282.93029954,201.49654342,262.26544975,2.23606798,,,3.0,216.51276434,0.08927057,0.6531376,0.37202272,-0.301669,,,0.143652,1.01609856,6.84228714,7.133045,7.24282692,7.27119,,,7.42921,7.443574,6.84707429,6.053021,6.35421231,6.36858,,,6.01902,6.352296,1.48441,1.78368,1.79805,-0.301669,,,0.143652,2.39899,-1.62327,-0.665588,-0.550666,-0.301669,,,0.143652,0.0694318,7.50343,7.78116,7.92241,7.27119,,,7.42921,7.72609,6.32548,6.30872,6.59842,7.27119,,,7.42921,7.14669,8.14268,8.14507,9.71328,6.36858,,,6.01902,6.88094,5.60722,5.01106,4.18028,6.36858,,,6.01902,5.37019,9.76070862,9.45777845,9.77603023,9.67057493,,,9.5625519,9.89661732,-0.22793986,-0.06908879,0.40641359,0.177762,,,-0.292604,-0.4322482,0,0.0,0.0,0.0,,,0.0,0.0,0.04284791,-0.1611463,-0.33249871,-0.0922407,,,0.0,0.2409254,0.109345,0.235794,1.13377,0.177762,,,-0.292604,-0.245568,-0.342695,-0.442266,-0.0690278,0.177762,,,-0.292604,-0.573602,0.8546,0.265726,-0.0299324,-0.00427606,,,0.315206,0.475253,-0.208305,-0.485638,-0.754419,-0.00427606,,,0.315206,0.159436,0.265116,0.0354302,0.0207694,-0.0922407,,,0.0,0.353691,-0.158825,-0.544892,-0.660345,-0.0922407,,,0.0,0.138056,0.52823977,0.42102304,0.69321079,0.20031465,,,0.43008362,0.5929074
Vk2LE9pv1cgXgDCkG2IKoMy728q1,2,9.6e-07,7.9e-07,1.89e-06,,,,,1.45e-06,3.24e-06,1.61e-06,3.29e-06,,,,,2.7e-06,6e-08,3e-08,6e-08,,,,,3e-08,236.81501568,93.71761962,352.7779157,,,,,276.42321513,0.37640243,0.8422806,1.1585541,,,,,0.74848712,6.59004071,6.71047,7.10168,,,,,7.2149275,7.22826571,7.501034,5.898594,,,,,6.38384,2.01352,1.53229,2.48039,,,,,2.31519,-1.55863,-0.100556,0.138864,,,,,-0.857124,7.50822,7.30471,7.54174,,,,,7.53695,5.37259,6.23211,6.44519,,,,,6.7301,9.7444,8.57603,6.99346,,,,,6.80911,5.33428,6.62476,4.96079,,,,,5.5737,9.89949961,10.12445499,9.35096462,,,,,9.72418726,0.04367679,0.17678428,0.24740042,,,,,-0.23564132,0,-1.0,0.0,,,,,0.0,0.01457352,-0.17482938,-0.4702439,,,,,0.16661359,0.67745,0.297491,0.477086,,,,,0.169821,-0.92485,0.0616974,0.0128282,,,,,-0.572992,0.979217,0.0366519,0.285274,,,,,0.344528,-1.05496,-1.08245,-0.836275,,,,,-0.252898,0.31032,0.072693,-0.3036,,,,,0.422719,-0.144775,-0.505796,-0.62858,,,,,-0.067806,0.5858347,0.66946748,0.6328834,,,,,0.46380417
Vk2LE9pv1cgXgDCkG2IKoMy728q1,3,8.4e-07,1.34e-06,7.9e-07,1.14e-06,1.37e-06,1.53e-06,7.1e-07,2.01e-06,1.33e-06,2.52e-06,1.81e-06,2.11e-06,4.02e-06,3.59e-06,8.7e-07,3.29e-06,1.2e-07,9e-08,1.3e-07,1.3e-07,7e-08,1.2e-07,5.4e-07,8.4e-07,117.17340848,456.11318274,190.40741979,200.94123764,510.57474417,571.16529377,108.23566833,359.03431329,2.29125125,1.6851976,1.62609851,1.60464689,1.760696,1.03824612,1.06371043,1.54904711,5.88524875,6.21024,6.50961636,6.32601333,6.09643667,6.242642,5.92565,5.30688111,7.21732125,7.33966533,6.51179273,7.15520556,6.93536333,7.1347215,7.69804286,8.28765889,3.17232,3.96719,3.00712,2.3966,3.13162,2.96642,2.28407,2.44209,1.15401,0.47884,-0.198719,0.629675,0.380678,-0.469264,0.61531,0.378284,6.57927,6.97192,7.12993,7.02459,6.82587,6.88094,6.17465,5.8227,5.25527,5.48033,6.06691,5.63116,4.70221,5.45399,5.54497,4.79798,8.55927,8.37252,7.48667,8.61673,7.83143,8.57603,8.65265,10.058,5.63116,5.66708,5.40371,6.07409,5.54497,5.56652,7.1419,7.0198,9.66852067,9.85222035,9.43049817,9.71912488,9.44896782,9.59180535,9.79134493,10.02619804,-0.23304501,-0.23115147,-0.1692097,-0.3786006,0.04381937,0.17284428,0.42874014,0.00746611,0,0.0,-1.0,-1.0,0.0,0.0,0.0,1.0,0.00358877,-0.15955801,-0.07891272,-0.1867889,0.02565631,0.10732901,0.37158071,0.64751711,0.0500909,0.306654,-0.0244346,0.142942,0.433103,0.690278,0.575435,0.499077,-0.573602,-0.838107,-0.3317,-0.733649,-0.152716,-0.114232,0.265726,-0.574213,0.857044,0.199142,-0.245568,0.0323759,0.341474,0.829555,0.697608,2.15086,-0.00549779,-0.704328,-0.824668,-0.852157,-0.787405,-0.219911,0.150884,0.150884,0.193033,0.152716,0.0775799,0.0360411,0.505186,0.499077,0.612698,0.901026,-0.180205,-0.404393,-0.309098,-0.488692,-0.375071,-0.188147,0.175318,0.332311,0.44728985,0.56624378,0.63009924,0.76223933,0.36945237,0.47286049,0.70665904,1.31448158
Vk2LE9pv1cgXgDCkG2IKoMy728q1,3,1.02e-06,1.76e-06,1.39e-06,1.22e-06,9.4e-07,1.43e-06,9.8e-07,8.5e-07,3.01e-06,3.13e-06,3.49e-06,3.25e-06,2.83e-06,2.63e-06,1.94e-06,1.61e-06,6e-08,1.3e-07,6e-08,8e-08,3e-08,4e-08,6e-08,7e-08,194.20283388,406.05219654,241.94278734,294.926724,324.44933118,486.75207168,231.33485782,256.33888465,2.76290844,2.10530223,1.62703129,1.75534967,1.39544253,1.2524667,1.7507605,1.79229973,5.63089778,5.80035083,6.00534,5.96575167,6.11731053,5.95333188,5.81451667,5.74736133,7.72289667,7.67660833,6.79577143,6.89709667,6.82511211,7.64857625,7.76958417,7.62665,5.19542,3.63919,3.28006,2.84192,3.56018,3.53384,2.97839,3.99592,0.711078,0.00957681,0.107739,-0.378284,0.181959,-0.320823,0.430956,0.778116,6.41167,6.49547,6.83066,6.53856,6.72531,6.5242,6.25126,7.25443,4.47237,5.26724,5.48751,5.40371,5.52342,5.55934,5.48512,5.24809,9.37809,9.23683,7.762,8.20732,8.32943,8.91361,9.59357,9.26077,6.6056,5.57849,5.73172,6.19619,4.23055,6.72531,6.359,5.0805,10.07283293,9.93251249,9.31956862,9.33566716,9.345996,9.83731187,9.91143104,9.81212065,-0.185703,-0.24118996,0.04101531,0.10629057,0.13731618,0.08578841,0.13006337,-0.10360268,0,-1.0,0.0,-1.0,0.0,0.0,1.0,1.0,0.27936911,-0.09376785,-0.20106199,-0.23691397,0.01379271,0.03004701,0.16656265,0.16301955,0.496023,0.0507018,0.156382,0.351858,1.09284,0.902859,0.325591,0.152105,-0.589485,-0.6072,-0.0983493,-0.0720821,-0.198531,-0.194255,-0.0830777,-0.401338,1.13804,0.24007,0.204029,-0.0867429,0.349415,0.716545,0.915687,1.12827,-0.230296,-1.51311,-0.74098,-1.18386,-0.643241,-0.188757,0.121562,-0.0287107,0.908967,0.132558,0.0922407,-0.0152716,0.194255,0.442266,0.468534,0.511294,-0.180816,-0.332922,-0.424551,-0.434936,-0.139277,-0.266337,-0.117897,-0.181427,0.7092751,0.69636272,0.43615176,0.68915689,0.36124511,0.41248827,0.73253801,0.68315918
Vk2LE9pv1cgXgDCkG2IKoMy728q1,3,4.3e-07,1.38e-06,8e-07,1.44e-06,1.02e-06,7.5e-07,1.68e-06,1.06e-06,6.9e-07,2.86e-06,9e-07,2.83e-06,1.76e-06,1.41e-06,1.95e-06,2.79e-06,1.8e-07,4e-08,7.2e-07,2.4e-07,1.3e-07,4e-08,1.33e-06,1.9e-07,51.72222804,431.63990921,54.36071138,302.29908321,171.51487628,135.86236623,149.81052715,355.4439882,1.82956967,2.259168,1.15939175,1.7336409,1.30829733,1.28462253,0.72145253,1.83207771,5.1619,5.341624,5.480925,5.510974,5.04218778,5.04245667,4.86262333,4.91871643,8.02176833,7.70118867,7.4507575,7.711963,7.63271556,8.25946333,8.81465,8.16440071,3.20105,3.58651,3.29921,3.21062,2.13323,2.04704,1.72143,3.9241,0.694318,0.639252,-0.179565,-0.25618,0.203507,-0.0383072,0.0430956,0.148441,5.56652,5.82988,5.71496,5.8634,5.28879,5.31513,5.12599,6.11958,4.67827,4.85544,4.95839,4.93684,4.65433,4.72615,4.63996,3.71341,10.3118,9.64384,7.92481,8.42759,8.71011,8.86812,9.31344,9.81144,6.89291,6.74207,6.75644,7.02698,6.69658,7.34541,7.91523,6.05972,9.79990341,9.6987417,9.42658936,9.6953792,9.26320955,9.7941781,10.12471867,9.80003351,-0.10781781,-0.15397878,-0.1670715,0.06939424,0.15658522,0.04656161,0.0460185,-0.05393066,0,0.0,-1.0,-1.0,0.0,0.0,1.0,1.0,-0.01069014,-0.06601415,-0.13469575,-0.24410183,-0.03685558,0.11911872,0.31703933,0.22828901,0.0946841,0.265726,0.225409,0.533896,0.346361,0.265116,0.0873537,0.166155,-0.269392,-0.529009,-0.410501,-0.321315,-0.0280998,-0.285885,-0.0280998,-0.455705,0.377515,0.153938,-0.274889,0.147829,0.0500909,0.31032,1.00976,1.78312,-0.0219911,-0.881479,-1.57053,-1.37994,-0.29627,-0.348193,0.270002,0.167988,0.0849103,0.138666,0.12034,0.0262672,0.0934624,0.226631,0.521679,0.927293,-0.0684169,-0.33903,-0.298102,-0.53634,-0.185703,0.0244346,0.196699,-0.226631,0.27692829,0.57484418,1.00301322,0.79893041,0.26453031,0.2856745,0.73670104,0.81261352
Vk2LE9pv1cgXgDCkG2IKoMy728q1,3,1.11e-06,1.6e-06,1.75e-06,9.9e-07,1.18e-06,1.24e-06,8.8e-07,1.27e-06,1.76e-06,2.82e-06,3.04e-06,2.37e-06,2.84e-06,2.58e-06,1.58e-06,2.21e-06,1.3e-07,4e-07,2.3e-07,1.1e-07,3e-08,8e-08,5e-07,2.6e-07,304.66528867,397.77547411,145.40376043,241.64306426,532.21620828,481.18633025,52.90724809,296.34241012,1.57555657,1.37886015,1.6041154,1.1530487,1.11965388,0.50757042,0.34556313,0.5937621,5.42953714,5.40311417,5.606262,5.370194,5.44649609,5.38469222,5.34465333,5.114016,7.55592857,7.82644583,7.723694,7.642052,7.88889391,8.07218278,8.19455333,8.259519,3.28724,2.77727,2.85149,2.35111,3.58891,1.79565,0.713472,1.52271,0.481235,-0.555455,-0.725443,-0.957681,-1.1157,-0.411803,0.0287304,-0.605733,5.69102,5.56891,5.94001,5.95438,5.97353,6.09564,5.52821,5.70778,5.08768,5.2457,5.4516,4.61363,4.89375,4.78122,5.09007,4.35745,8.18817,9.52653,8.27197,8.0948,8.96389,9.50019,9.06205,9.30147,6.11,6.94079,7.31189,7.02219,6.84981,7.29034,7.58483,7.8051,9.49288125,9.6712435,9.76447249,9.50291239,9.72246331,9.75310007,9.8063749,9.77332683,-0.16345008,0.05645413,-0.07257082,0.0213192,0.10966358,0.03390309,-0.06251163,-0.05821544,0,-1.0,0.0,0.0,0.0,0.0,1.0,1.0,0.07347836,-0.13841202,-0.18362602,-0.04935794,-0.00589612,-0.00030542,0.2131921,0.4887536,0.103236,0.363465,0.0390954,0.180205,0.439823,0.405615,0.0586431,0.149662,-0.415388,-0.146608,-0.187536,-0.156992,-0.145997,-0.135612,-0.129503,-0.185703,1.17836,0.17654,0.0262672,0.259618,0.538172,0.483805,1.55465,1.72386,0.0232129,-1.67499,-0.846659,-0.71288,-0.188757,-0.207694,0.0959058,0.359189,0.377515,0.11301,-0.0378736,0.152716,0.208305,0.215635,0.554666,1.02809,-0.130725,-0.387289,-0.316428,-0.140499,-0.2474,-0.18387,-0.0873537,0.11973,0.52427385,0.91334586,0.56735258,0.47949638,0.26308114,0.20351065,0.68315543,1.19611597
Vk2LE9pv1cgXgDCkG2IKoMy728q1,3,3.4e-07,1.59e-06,1.12e-06,1.25e-06,8.8e-07,1.29e-06,1.66e-06,1.55e-06,4.5e-07,2.92e-06,2.36e-06,2.49e-06,1.99e-06,3.36e-06,2.89e-06,2.75e-06,2.1e-07,5.4e-07,1.1e-07,8.3e-07,3e-08,1.5e-07,8.5e-07,3e-07,41.11188864,484.72766764,216.16757692,218.14504191,258.66783941,577.92868788,382.40394468,301.37141364,2.02988333,1.300736,1.57804611,1.07619313,0.044213,0.61596256,0.23484955,1.10803554,5.45239667,4.95360286,5.76018222,5.61619875,5.131574,5.39391864,4.96600818,5.199966,8.42519667,8.21655929,7.46299333,7.04164875,8.095912,7.91316318,8.41823273,7.763678,2.83713,1.86508,3.12683,3.04303,1.46525,1.86029,1.60172,2.20027,1.36469,0.718261,-0.864307,-1.43413,-2.24097,-0.294487,-0.792481,-0.555455,5.87777,5.46357,6.21774,6.11479,5.71496,5.75087,5.9041,6.09324,4.76925,4.46519,4.75967,5.1188,4.45322,4.98233,4.59208,4.07254,8.95192,9.19613,8.22169,8.89207,8.83221,9.63187,9.28232,9.39006,8.03255,7.16106,6.84981,6.08367,7.58722,6.12197,7.43639,6.50744,10.26182058,9.69630067,9.63020969,9.22342823,9.64130938,9.63582091,9.81071898,9.49333065,-0.13489915,-0.0649262,-0.19126865,0.02802338,0.04475604,0.12084023,-0.03887324,-0.17556272,0,-1.0,0.0,-1.0,0.0,0.0,1.0,1.0,0.08297588,-0.07997964,-0.0177151,-0.2130393,-0.10791957,-0.01657666,0.24617874,0.40995165,0.0720821,0.213803,0.224188,0.263894,0.180205,0.739147,0.135001,0.0946841,-0.356134,-0.330478,-0.467312,-0.255953,-0.16921,-0.257174,-0.230296,-0.460592,0.414167,-0.0433714,0.107512,-0.447153,0.335365,0.957837,1.1246,1.39888,0.0904081,-1.06718,-0.944398,-1.04519,-0.516181,-0.348193,0.313374,0.0348193,0.243124,0.186925,0.245568,0.0201586,0.150884,0.212581,0.466701,0.878424,-0.120951,-0.272446,-0.379958,-0.383013,-0.351248,-0.323148,-0.0836885,0.0708604,0.37935448,0.65684799,0.60226419,0.7786576,0.26416296,0.45133624,0.80615771,1.14358521
Vk2LE9pv1cgXgDCkG2IKoMy728q1,3,5e-07,1.79e-06,1.26e-06,1.32e-06,1.04e-06,1.6e-06,1.04e-06,1.46e-06,1.55e-06,3.43e-06,1.96e-06,2.24e-06,2.77e-06,2.38e-06,2.12e-06,2.63e-06,4e-08,7.5e-07,3.8e-07,6.2e-07,6e-08,1.13e-06,4e-08,1.2e-07,180.28792222,437.80625422,193.39088903,258.26078887,392.10171493,559.6603217,169.30814427,304.55681369,1.089512,1.79624968,1.34485769,1.01194787,0.37193908,0.10971082,-0.190638,1.36142973,5.56457438,5.33228583,5.60482571,5.56226222,5.528331,5.44540118,5.24689375,5.00671182,7.66653312,7.91483167,7.66691714,7.70773222,7.705618,7.92241353,7.86555125,8.57494182,2.55701,3.39977,3.20344,2.03028,1.87466,1.21865,0.811634,2.2697,0.414197,-0.260968,-0.526724,-0.957681,-1.35033,-1.99916,-1.22104,0.445322,6.24168,5.63834,6.18662,5.97832,5.86579,5.72454,5.77003,5.93044,5.25048,4.99909,5.12838,5.10444,5.10204,4.93684,4.79559,4.44124,8.31027,8.6311,8.24084,8.37731,8.27197,8.82503,8.89685,9.04051,6.85939,6.86896,6.74207,6.90009,6.75165,6.69419,7.33344,7.97269,9.56211009,9.78325588,9.6950599,9.61882019,9.51538167,9.66064897,9.49540493,10.0491418,-0.05115988,-0.10914121,-0.063879,0.04527184,0.09117166,0.05192355,0.10774142,0.03126527,0,0.0,-1.0,-1.0,0.0,0.0,1.0,1.0,0.03046692,-0.10710493,-0.0370882,-0.25493425,-0.03979789,0.00614453,-0.04115698,0.62996808,0.122173,0.0885755,0.0433714,0.17654,0.292604,0.253509,0.28955,0.324369,-0.274889,-0.345139,-0.225409,-0.0891863,-0.0592539,-0.0519235,-0.0244346,-0.307265,1.00487,0.215025,-0.237627,-0.304822,0.757473,0.747088,1.23761,2.16307,-0.229074,-1.30481,-1.65117,-1.51006,-0.560163,-0.338419,-0.0250455,0.0916298,0.590707,0.0910189,0.14111,0.00977384,0.138666,0.198531,0.0390954,1.14232,-0.340863,-0.364076,-0.506407,-0.434325,-0.174707,-0.172875,-0.161879,-0.0109956,0.33246502,0.5964395,0.68027497,0.81355182,0.31780458,0.31120982,0.69397739,1.59196265
Vk2LE9pv1cgXgDCkG2IKoMy728q1,3,6e-07,1.45e-06,6.1e-07,1.74e-06,1.6e-06,1.29e-06,1.44e-06,1.42e-06,8e-07,2.46e-06,1.39e-06,2.52e-06,3.49e-06,3.13e-06,3.01e-06,2.76e-06,3.9e-07,2.4e-07,6e-08,3.3e-07,3.5e-07,1.3e-07,6e-08,6.9e-07,46.82054617,516.38936791,72.69650699,322.42883605,463.08474199,429.67099795,244.05536178,365.28697336,1.408988,0.98331206,0.98333257,1.086968,0.23862199,-0.20515294,-0.41509538,1.13153723,5.756855,5.08218647,5.50290286,5.85329111,5.16987867,5.2693375,5.321115,5.29431615,7.126345,8.06254471,7.99594714,7.10439444,8.18066867,7.79806438,7.87093875,8.42040692,2.43251,2.13563,3.09091,3.15316,1.81959,0.991199,0.301669,3.00951,0.385466,-0.0694318,-1.92494,-1.14682,-1.35751,-2.23618,-1.09176,0.208296,5.99029,5.65271,5.89452,6.50026,5.61919,5.73411,5.66468,6.37576,5.52342,4.68066,5.14753,5.1212,4.82671,4.94881,5.00867,4.43646,7.19458,9.414,9.10036,8.18099,9.17698,8.58321,8.6718,9.414,7.05811,6.91445,7.27837,6.21774,6.68701,6.89291,6.74686,7.32865,9.32826002,9.61839944,9.90206722,9.39239956,9.74276655,9.47671816,9.52345453,10.0617519,-0.323453,-0.14941051,-0.0056723,0.06359781,0.08816813,0.01542433,0.08002324,-0.16117444,1,0.0,-1.0,-1.0,0.0,0.0,1.0,1.0,0.12828155,-0.08512589,-0.05681039,-0.32111154,-0.04719955,0.0316504,0.01382074,0.48784621,-0.259007,0.161879,0.19059,0.244957,0.549168,0.215635,0.361021,0.114232,-0.387899,-0.549779,-0.286496,-0.274889,-0.37385,-0.255953,-0.106291,-0.569326,0.759305,-0.165544,0.259618,-0.171653,1.0739,0.896139,1.26205,1.74769,0.57177,-0.756862,-1.1692,-1.07268,-0.563218,-0.182038,0.0329867,0.434325,0.207083,0.370795,0.238848,0.165544,0.186314,0.307876,0.106901,1.05435,0.0494801,-0.304211,-0.254731,-0.691499,-0.284052,-0.185703,-0.132558,0.0238237,0.75354066,0.58352159,0.74413935,0.75812961,0.54234503,0.32825381,0.73434495,1.08542057
Vk2LE9pv1cgXgDCkG2IKoMy728q1,3,8.1e-07,1.59e-06,8.1e-07,1.73e-06,1.17e-06,1.64e-06,1.71e-06,1.55e-06,1.79e-06,2.49e-06,2.55e-06,2.16e-06,1.74e-06,3.35e-06,3.02e-06,2.69e-06,8e-08,3.3e-07,1.3e-07,9.8e-07,6e-08,1.6e-07,4e-08,5e-07,95.99447445,411.10495457,284.78815595,202.2747049,317.88425379,570.7710863,267.66692253,352.80760864,1.1267114,1.13707471,1.53177679,0.83626171,0.30135012,-0.27789857,-0.02424175,1.34099312,5.112578,4.989515,5.14394143,5.10135857,4.84746067,5.05142357,4.73543125,4.903804,8.180508,8.34293714,7.68709786,7.65050143,8.455524,8.19039357,8.32284375,8.216422,3.14359,2.8898,2.93769,3.15556,1.83635,2.30322,1.08457,2.5618,-0.3304,0.112527,-1.403,-1.18034,-1.52032,-1.54187,-0.842759,-0.0215478,5.71257,5.38935,5.49469,5.44681,5.48033,5.25527,5.04698,6.13634,4.70221,4.51546,4.73573,4.56574,4.26647,4.72137,4.4197,4.08451,8.73884,9.60793,9.54808,8.35098,10.2161,9.77313,9.30866,9.84975,7.4747,7.69975,6.54335,6.79235,7.79552,7.21134,7.69257,6.90727,9.7917196,9.82837118,9.45033788,9.40284657,9.80015672,9.68058275,9.59650821,9.72895043,0.00623074,-0.17627816,-0.07483109,-0.02417277,0.0789645,0.13199064,0.12904525,-0.13603978,0,-1.0,0.0,-1.0,0.0,0.0,1.0,1.0,0.01502722,-0.01439896,-0.10166545,-0.17313673,-0.05184213,-0.01771505,0.16806436,0.4877148,0.119119,-0.00061087,0.2474,0.139888,0.541227,0.294437,0.332922,0.159436,-0.213803,-0.532674,-0.284663,-0.175929,-0.136834,-0.0751364,-0.0507018,-0.340252,0.736704,0.26817,0.0568105,-0.368352,1.24372,1.06474,1.59191,1.48379,0.0415388,-1.56015,-1.33535,-1.21684,-0.498466,-0.149662,0.143553,0.780686,0.103236,0.286496,0.0885755,-0.0629191,0.212581,0.115454,0.243735,0.993267,-0.0922407,-0.415388,-0.307265,-0.309098,-0.279165,-0.249844,-0.0360411,0.130114,0.37300516,0.67774489,0.57150401,0.81915387,0.39668991,0.45165493,1.12328611,1.26716941
jddaidghNmdNCnTgmTnjaYxX4eJ2,1,8.8e-07,,,5.4e-07,8e-08,,9e-07,1.15e-06,2.43e-06,,,6.9e-07,8e-08,,3.24e-06,2.3e-06,4e-08,,,3.9e-07,8e-08,,6e-08,2.3e-07,250.09422007,,,18.41290384,2.0,,205.366981,161.83541202,-0.67534923,,,-0.4788405,-0.538695,,-0.58919118,-0.5997475,7.88779,,,7.82186,7.86974,,7.78659818,7.84859167,5.59322462,,,5.902905,5.40611,,5.54954273,5.6567,-0.397437,,,-0.459687,-0.538695,,-0.418985,-0.471658,-1.16598,,,-0.497994,-0.538695,,-0.744597,-0.835576,8.20014,,,7.85059,7.86974,,7.89608,7.94396,7.71412,,,7.79313,7.86974,,7.58004,7.74524,5.88255,,,6.09803,5.40611,,5.70299,5.82509,4.98473,,,5.70778,5.40611,,5.29358,5.40371,9.69930686,,,9.81250384,9.56289837,,9.58116336,9.69476209,-0.15337425,,,-0.01191186,0.0152716,,0.00716377,0.00305433,0,,,0.0,0.0,,0.0,0.0,0.00164463,,,-0.01649337,0.00488692,,0.01871469,0.00519236,0.0274889,,,-0.00305433,0.0152716,,0.0378736,0.0329867,-0.291383,,,-0.0207694,0.0152716,,-0.0213803,-0.0335976,0.0171042,,,0.0525344,-0.0219911,,0.0244346,0.0421497,-0.171653,,,-0.0213803,-0.0219911,,-0.0519235,-0.0171042,0.0280998,,,-0.00977384,0.00488692,,0.0482584,0.0152716,-0.0513127,,,-0.0232129,0.00488692,,-0.0116064,-0.013439,0.19016961,,,0.04444223,0.02721603,,0.03887658,0.03104118
jddaidghNmdNCnTgmTnjaYxX4eJ2,1,7e-07,,,6.6e-07,2e-08,1.9e-07,1.75e-06,1.97e-06,2.5e-06,,,6.6e-07,2e-08,2.6e-07,4.16e-06,3.59e-06,1.2e-07,,,6.6e-07,2e-08,1.3e-07,3e-08,1.6e-07,134.98403723,,,21.84032967,1.0,6.3591736,200.93355797,297.96175577,-0.71187583,,,-0.588974,-0.636858,-0.738611,-0.62568467,-0.64493788,7.95273833,,,7.99663,7.9703,8.02417,7.926005,7.9762825,5.54178,,,5.9472,5.72214,5.414485,5.53539667,5.208585,-0.586579,,,-0.588974,-0.636858,-0.677559,-0.134075,-0.215478,-0.866701,,,-0.588974,-0.636858,-0.799663,-0.876278,-0.878672,8.03015,,,7.99663,7.9703,8.0948,8.30788,8.17859,7.89368,,,7.99663,7.9703,7.95354,7.74524,7.83383,5.81312,,,5.9472,5.72214,5.46117,6.02621,5.63595,5.00628,,,5.9472,5.72214,5.3678,4.96797,4.38139,9.72165252,,,9.98309419,9.83230168,9.70873971,9.69291488,9.55640003,-0.0798197,,,0.00794125,-0.00794125,0.0207694,0.05507966,-0.12423459,0,,,0.0,0.0,0.0,0.0,0.0,0.02311107,,,-0.022602,-0.0158825,0.00580324,0.02494368,-0.00213805,-0.0262672,,,0.00794125,-0.00794125,0.0219911,0.166766,0.0965167,-0.199142,,,0.00794125,-0.00794125,0.0195477,-0.00794125,-0.238237,0.00122173,,,0.0519235,-0.0018326,-0.0164934,0.0525344,0.0305433,-0.225409,,,0.0519235,-0.0018326,-0.0232129,-0.054367,-0.233961,0.0439823,,,-0.022602,-0.0158825,0.0128282,0.0568105,0.0311541,0.0103847,,,-0.022602,-0.0158825,-0.00122173,-0.00671952,-0.0604757,0.10452387,,,0.0571836,0.01785149,0.03030606,0.0778522,0.19419009
jddaidghNmdNCnTgmTnjaYxX4eJ2,1,7.7e-07,,6e-08,1.11e-06,,1.7e-07,9.5e-07,1.88e-06,2.88e-06,,6e-08,1.11e-06,,1.7e-07,3.28e-06,3.62e-06,6e-08,,6e-08,1.11e-06,,1.7e-07,3e-08,2e-07,128.93805164,,1.0,36.49657518,,2.82842712,149.63770875,361.12461651,-0.70908267,,-0.794875,-0.933739,,-0.804452,-0.7126745,-0.58766773,7.95673,,7.95354,7.5992,,7.88171,7.98306833,7.96681455,5.67106667,,5.81312,6.00226,,5.82509,5.50068,5.23916455,-0.565032,,-0.794875,-0.933739,,-0.804452,-0.117316,-0.102951,-0.787692,,-0.794875,-0.933739,,-0.804452,-1.01275,-0.921768,8.04931,,7.95354,7.5992,,7.88171,8.09719,8.15465,7.82665,,7.95354,7.5992,,7.88171,7.7644,7.79552,6.15789,,5.81312,6.00226,,5.82509,5.9065,5.60483,5.19063,,5.81312,6.00226,,5.82509,5.17148,4.81713,9.79977467,,9.88347049,9.72866046,,9.83362441,9.72710889,9.55885856,-0.12807816,,-0.00122173,0.0360411,,0.00916298,0.0335976,-0.05875414,0,,0.0,0.0,,0.0,0.0,0.0,0.0083485,,-0.00305433,-0.0397062,,-0.0604757,0.02860884,0.00416501,-0.00794125,,-0.00122173,0.0360411,,0.00916298,0.0989602,0.118508,-0.273668,,-0.00122173,0.0360411,,0.00916298,-0.00610865,-0.262672,-0.0238237,,0.00733038,0.0971276,,0.0348193,0.031765,0.0323759,-0.263283,,0.00733038,0.0971276,,0.0348193,-0.121562,-0.143553,0.040928,,-0.00305433,-0.0397062,,-0.0604757,0.0592539,0.0360411,-0.0464258,,-0.00305433,-0.0397062,,-0.0604757,0.00549779,-0.0665843,0.17971691,,0.00803468,0.11094735,,0.0703822,0.07288508,0.11058687
jddaidghNmdNCnTgmTnjaYxX4eJ2,1,1.12e-06,,,5.1e-07,1.5e-07,,1.23e-06,1.6e-06,2e-06,,,7.1e-07,1.5e-07,,3.85e-06,3.54e-06,5.1e-07,,,3e-07,1.5e-07,,1.2e-07,5e-08,102.02539951,,,17.18206549,5.09901951,,155.13676322,339.59781147,-0.7603982,,,-0.736217,-0.742203,,-0.629333,-0.67942133,7.923848,,,7.976285,7.94875,,7.87452857,7.92134889,5.544012,,,5.816715,5.60483,,5.57233143,5.25048333,-0.574608,,,-0.694318,-0.742203,,-0.282516,-0.385466,-1.09415,,,-0.778116,-0.742203,,-0.842759,-0.888249,7.97269,,,7.99185,7.94875,,7.94636,8.07564,7.83622,,,7.96072,7.94875,,7.63032,7.81228,5.95677,,,5.86819,5.60483,,5.96874,5.63834,5.15232,,,5.76524,5.60483,,5.14993,4.83868,9.70448715,,,9.89948745,9.7543637,,9.67115091,9.53139645,-0.06902792,,,0.01832594,-0.00916298,,0.03551741,-0.03590529,0,,,0.0,0.0,,0.0,0.0,-0.0263894,,,-0.0180205,-0.0152716,,0.02853614,0.01472863,0.0140499,,,0.0311541,-0.00916298,,0.130725,0.0885755,-0.137445,,,0.00549779,-0.00916298,,-0.0219911,-0.104458,-0.00488692,,,0.0623083,-0.00366519,,0.0574213,0.0207694,-0.140499,,,0.0152716,-0.00366519,,-0.0482584,-0.150884,0.0274889,,,-0.0152716,-0.0152716,,0.0604757,0.0397062,-0.0904081,,,-0.0207694,-0.0152716,,0.00671952,-0.00549779,0.12311046,,,0.04748953,0.01818284,,0.07601448,0.07976596
jddaidghNmdNCnTgmTnjaYxX4eJ2,1,8.8e-07,,,4.1e-07,,,1.98e-06,1.04e-06,2.31e-06,,,7.7e-07,,,3.43e-06,2.77e-06,1.2e-07,,,4e-08,,,3.7e-07,1.6e-07,135.63915145,,,13.78353044,,,287.05259415,188.34342756,-0.61920025,,,-0.496797,,,-0.62659657,-0.72274975,7.8957775,,,7.851785,,,7.81843857,7.93318875,5.61919125,,,5.58567,,,5.47280571,5.448005,-0.289698,,,-0.462081,,,-0.215478,-0.457293,-0.823605,,,-0.531513,,,-1.26653,-0.926556,7.94875,,,7.86974,,,7.95114,8.02297,7.8434,,,7.83383,,,7.7644,7.78116,5.87298,,,5.65271,,,5.91847,5.63116,5.38935,,,5.51863,,,4.94163,5.20021,9.71266407,,,9.64895803,,,9.57433876,9.65303174,-0.06383549,,,0.00946841,,,0.04668749,-0.05894852,0,,,0.0,,,0.0,0.0,-0.00290162,,,-0.02504549,,,0.00785398,0.0122173,0.0219911,,,0.0122173,,,0.102014,-0.018326,-0.178984,,,0.00671952,,,-0.0018326,-0.114232,-0.00305433,,,0.0372628,,,0.0500909,0.0201586,-0.0763582,,,0.0122173,,,-0.0629191,-0.119119,0.0311541,,,-0.00733038,,,0.054367,0.0329867,-0.0531453,,,-0.0427606,,,-0.0207694,-0.00671952,0.09169496,,,0.03688606,,,0.07325176,0.08723925
jddaidghNmdNCnTgmTnjaYxX4eJ2,1,1.14e-06,,,4.1e-07,,,1.39e-06,1.1e-06,1.77e-06,,,5.9e-07,,,3.31e-06,2.97e-06,6.7e-07,,,1.3e-07,,,1.2e-07,2.1e-07,106.77873596,,,28.30158648,,,158.50444248,308.26646301,-0.6986282,,,-0.647033,,,-0.74639125,-0.71107777,7.898472,,,7.9421675,,,7.8146725,7.90178692,5.498522,,,5.610215,,,5.4928975,5.48530154,-0.557849,,,-0.476446,,,-0.179565,-0.205901,-0.814029,,,-0.730232,,,-1.38145,-0.981623,7.99424,,,8.02536,,,7.94396,8.07085,7.81467,,,7.86735,,,7.71651,7.80989,5.74369,,,5.79397,,,5.99029,5.7413,5.30076,,,5.43963,,,5.01825,4.84108,9.65010245,,,9.74620277,,,9.59600241,9.64976675,-0.03640756,,,-0.0018326,,,0.05054904,-0.02138027,0,,,0.0,,,0.0,0.0,-0.00525344,,,-0.00213802,,,0.00962113,0.00657855,-0.00855211,,,0.00122173,,,0.171042,0.0586431,-0.0586431,,,-0.00671952,,,-0.0366519,-0.099571,-0.0109956,,,0.0360411,,,0.0287107,0.0507018,-0.0836885,,,0.0201586,,,-0.0690278,-0.135612,0.0164934,,,0.00855211,,,0.0311541,0.0274889,-0.0445932,,,-0.013439,,,-0.0244346,-0.0232129,0.05653079,,,0.03330594,,,0.09214666,0.05447247
jddaidghNmdNCnTgmTnjaYxX4eJ2,1,8.7e-07,,,3.8e-07,,,1.66e-06,1.41e-06,2.24e-06,,,6.5e-07,,,3.25e-06,2.82e-06,1.9e-07,,,1.1e-07,,,2e-07,1.4e-07,150.89963338,,,14.04585778,,,273.50577827,152.76200186,-0.67726,,,-0.5901705,,,-0.6248865,-0.75018317,7.90386,,,7.86615,,,7.8113825,7.84340667,5.63176125,,,5.544975,,,5.41388875,5.57769167,-0.505177,,,-0.584185,,,-0.225055,-0.536301,-0.936133,,,-0.596156,,,-0.986411,-0.852336,7.99185,,,7.87932,,,7.93678,7.96551,7.80989,,,7.85298,,,7.65666,7.72609,5.91368,,,5.54737,,,5.85861,5.74848,4.95121,,,5.54258,,,4.78122,5.20499,9.73209874,,,9.64216904,,,9.53228351,9.65497641,-0.02176207,,,0.00427606,,,0.05833771,-0.01588248,0,,,0.0,,,0.0,0.0,0.00030543,,,-0.0235183,,,0.00649044,0.01720604,0.0207694,,,0.00610865,,,0.145997,0.0232129,-0.0946841,,,0.00244346,,,-0.0305433,-0.0519235,0.00916298,,,0.0519235,,,0.132558,0.0219911,-0.0494801,,,-0.0219911,,,-0.0476475,-0.0983493,0.0287107,,,-0.0171042,,,0.0299324,0.0354302,-0.0268781,,,-0.0299324,,,-0.0287107,-0.00305433,0.051632,,,0.04410521,,,0.08465291,0.05149184
jddaidghNmdNCnTgmTnjaYxX4eJ2,1,1.4e-06,,,4.4e-07,,,6.9e-07,1.32e-06,2.53e-06,,,7.3e-07,,,1.71e-06,3.9e-06,9.4e-07,,,1.5e-07,,,6e-08,5e-08,94.05620394,,,17.46833639,,,67.53932669,411.27445404,-0.70569125,,,-0.725443,,,-0.6924034,-0.67140279,7.9002675,,,7.78714,,,7.812758,7.87794929,5.469555,,,5.453995,,,5.703466,5.45741286,-0.672771,,,-0.670376,,,-0.557849,-0.177171,-0.742203,,,-0.78051,,,-0.802058,-0.955287,7.92241,,,7.81467,,,7.95593,7.98706,7.88411,,,7.75961,,,7.5992,7.54652,5.54258,,,5.53061,,,6.09324,5.87777,5.38217,,,5.37738,,,5.08768,4.92248,9.63487163,,,9.53526321,,,9.70178385,9.61262617,-0.05574145,,,0.01893685,,,0.0316428,-0.01963495,0,,,0.0,,,0.0,0.0,0.00503965,,,-0.04825835,,,0.02382373,0.00890117,-0.0403171,,,0.0232129,,,0.122173,0.0855211,-0.0739147,,,0.0146608,,,-0.0244346,-0.0977384,0.0103847,,,0.0910189,,,-0.0164934,0.0537561,-0.06353,,,0.045204,,,-0.0867429,-0.107512,0.018326,,,-0.0415388,,,0.0421497,0.0470366,-0.018326,,,-0.0549779,,,0.00244346,-0.0146608,0.06985201,,,0.08597804,,,0.07999813,0.06538013
jddaidghNmdNCnTgmTnjaYxX4eJ2,2,1.56e-06,7.6e-07,1.31e-06,,,,,3.56e-06,2.82e-06,1.75e-06,2.48e-06,,,,,3.76e-06,2.7e-07,3.7e-07,2e-07,,,,,3.35e-06,292.40565984,217.63145698,249.38437019,,,,,181.01280345,-2.761711,-2.48193143,-2.444241,,,,,-4.55377,7.172789,6.85135,6.876628,,,,,6.075285,6.211038,6.07443143,6.494513,,,,,7.053315,-1.84832,-2.1069,-2.12366,,,,,-4.47955,-3.57215,-2.96881,-2.82755,,,,,-4.62799,8.00621,7.21852,7.11557,,,,,6.09803,6.39731,6.57448,6.71095,,,,,6.05254,8.16183,7.19697,7.27598,,,,,7.36935,3.21781,4.86262,5.37738,,,,,6.73728,9.98838109,9.51078753,9.78656995,,,,,10.3656239,-0.1675603,-0.0225584,-0.04795297,,,,,-0.862543,-1,0.0,0.0,,,,,-1.0,-0.12235637,-0.10349798,-0.10506887,,,,,-0.4514295,0.38118,0.219911,0.200975,,,,,-0.696386,-1.21501,-0.309098,-0.219301,,,,,-1.0287,-0.281609,0.0842994,0.150273,,,,,-1.26022,-1.25655,-0.894918,-0.911411,,,,,-1.44897,0.0213803,0.0305433,0.130725,,,,,-0.368352,-0.413556,-0.306654,-0.245568,,,,,-0.534507,0.80323021,0.34397168,0.46157485,,,,,1.68080924
jddaidghNmdNCnTgmTnjaYxX4eJ2,2,1.48e-06,1.15e-06,1.14e-06,,,,,2.59e-06,3.38e-06,1.7e-06,1.88e-06,,,,,3.77e-06,7.5e-07,3.6e-07,5.9e-07,,,,,1.41e-06,235.26624209,243.75438609,238.61643766,,,,,193.74246009,-2.40557375,-1.8031,-1.51473083,,,,,-3.00233,6.8495125,6.92775444,6.90268167,,,,,6.84143,6.54844125,6.65747778,6.68182,,,,,5.971135,-2.03507,-1.2809,-1.29047,,,,,-2.88741,-2.7653,-2.25534,-1.68073,,,,,-3.11725,7.12275,7.22331,7.17303,,,,,7.00543,6.50265,6.7301,6.63912,,,,,6.67743,6.82108,7.01262,7.16106,,,,,6.41885,6.20817,6.22732,6.07888,,,,,5.52342,9.78295243,9.78426493,9.72951574,,,,,9.57592211,-0.18570319,0.10615482,0.03324127,,,,,-0.6456845,-1,0.0,0.0,,,,,-1.0,-0.13988809,-0.08009114,-0.06159554,,,,,-0.3597995,-0.0140499,0.265726,0.211359,,,,,-0.594372,-0.337198,-0.158214,-0.130114,,,,,-0.696997,-0.333532,0.240681,0.108734,,,,,-0.768468,-1.27915,-0.913854,-0.649961,,,,,-1.14598,-0.0763582,0.0586431,0.0171042,,,,,-0.335976,-0.237016,-0.165544,-0.156992,,,,,-0.383623,0.71592903,0.58120739,0.3073413,,,,,1.22003898
jddaidghNmdNCnTgmTnjaYxX4eJ2,2,1.47e-06,1.51e-06,9.6e-07,,,,,2.81e-06,3.32e-06,2.47e-06,2.06e-06,,,,,3.31e-06,3.4e-07,7.7e-07,4.9e-07,,,,,2.3e-06,340.59550574,181.2947667,260.28574838,,,,,92.0606815,-2.20296375,-1.75575,-1.31975831,,,,,-2.504335,7.23378125,7.020995,6.97707077,,,,,7.447165,6.14950625,6.62874667,6.72936692,,,,,5.228935,-1.95127,-1.35991,-0.97444,,,,,-2.23618,-2.60489,-2.00634,-1.72383,,,,,-2.77249,8.37013,7.52976,7.13472,,,,,7.66863,6.6056,6.65109,6.70376,,,,,7.2257,6.90727,6.87615,7.32147,,,,,5.61201,3.881,6.31112,6.15789,,,,,4.84586,9.79685977,9.81976921,9.78814912,,,,,9.45199935,-0.2599995,-0.0416406,0.04323038,,,,,-0.647517,-1,-1.0,0.0,,,,,-1.0,-0.27435488,-0.21247933,-0.07565328,,,,,-0.361632,-0.111788,0.133169,0.24007,,,,,-0.605978,-0.547946,-0.200975,-0.167377,,,,,-0.689056,-0.521679,-0.256563,0.405004,,,,,-0.964556,-1.37872,-1.03114,-0.91813,,,,,-1.30236,-0.18326,-0.153327,0.00794125,,,,,-0.353691,-0.370795,-0.286496,-0.20464,,,,,-0.369573,0.91024424,0.83779792,0.35246382,,,,,1.36012806
jddaidghNmdNCnTgmTnjaYxX4eJ2,2,1.85e-06,1.07e-06,1.55e-06,,,,,2.85e-06,3.25e-06,2e-06,2.39e-06,,,,,3.9e-06,9.5e-07,7.3e-07,6.3e-07,,,,,5.4e-07,256.05364435,172.6362807,261.64105651,,,,,229.76633178,-2.10729667,-1.43518889,-1.2853875,,,,,-2.3732525,7.09122833,6.83783889,6.68610625,,,,,7.3160825,6.42923,6.88758667,7.05481375,,,,,4.9745525,-1.78368,-1.09894,-1.00317,,,,,-2.13323,-2.37505,-2.29843,-1.68312,,,,,-2.72221,7.25683,7.02698,6.91924,,,,,8.4659,6.86657,6.71095,6.55293,,,,,6.76841,7.16345,7.08205,7.41245,,,,,5.11641,5.55934,6.42125,6.54096,,,,,4.86981,9.80963904,9.81900649,9.80745409,,,,,9.17007188,-0.42302417,-6.796e-05,-0.08735379,,,,,-0.3323105,-1,0.0,0.0,,,,,-1.0,-0.27845267,-0.14728631,-0.1362994,,,,,-0.333685,-0.222966,0.213803,0.109956,,,,,-0.221744,-0.605978,-0.320093,-0.191812,,,,,-0.507018,-0.582155,0.420275,0.407447,,,,,-0.761749,-1.41782,-1.07024,-1.0849,,,,,-1.57237,-0.244346,-0.0476475,-0.0219911,,,,,-0.238848,-0.318872,-0.280387,-0.246179,,,,,-0.403782,1.05617292,0.54688699,0.5499588,,,,,1.33873331
jddaidghNmdNCnTgmTnjaYxX4eJ2,2,2.31e-06,1.06e-06,1.38e-06,,,,,2.01e-06,3.63e-06,1.71e-06,2.76e-06,,,,,3.24e-06,1.26e-06,5.4e-07,3.9e-07,,,,,2e-07,253.94818783,202.93279711,251.51262775,,,,,201.72628585,-2.46123833,-1.53149256,-1.3589497,,,,,-2.384625,6.81469667,6.72078889,6.59866,,,,,7.5154,6.47551833,7.08524,7.072472,,,,,4.6788675,-2.27689,-0.936133,-0.984017,,,,,-2.20745,-3.01669,-2.36787,-1.71664,,,,,-2.48279,7.34541,7.04853,6.84742,,,,,7.93678,6.31351,6.42364,5.74608,,,,,7.0198,6.83066,7.39808,7.83862,,,,,5.37498,6.09803,6.83066,6.70376,,,,,4.16591,9.72785194,9.89962989,9.77787938,,,,,9.19076152,-0.28476483,-0.06576991,-0.01576031,,,,,-0.4465425,-1,-1.0,0.0,,,,,-1.0,-0.36936983,-0.16907386,-0.14074339,,,,,-0.38851025,-0.221133,0.244346,0.177151,,,,,-0.33903,-0.348193,-0.371406,-0.197309,,,,,-0.538783,-0.798401,0.411723,0.578489,,,,,-0.51557,-1.57481,-1.21073,-1.31397,,,,,-1.62857,-0.258396,-0.0445932,0.0128282,,,,,-0.203418,-0.535729,-0.266948,-0.280387,,,,,-0.547335,1.18480039,0.73931269,0.61659322,,,,,1.25478899
jddaidghNmdNCnTgmTnjaYxX4eJ2,2,1.72e-06,1.61e-06,1.25e-06,,,,,2.27e-06,3.21e-06,2.27e-06,2.65e-06,,,,,3.24e-06,2e-07,5.9e-07,1.3e-07,,,,,9.7e-07,313.5402316,207.69980767,211.61618153,,,,,152.22216345,-2.36936375,-1.50635333,-1.24498444,,,,,-2.4809925,7.249045,6.76242167,6.73781556,,,,,7.45794,5.803845,7.07606333,7.12887,,,,,5.0266275,-2.17633,-1.13725,-1.00078,,,,,-2.30083,-2.86347,-2.18112,-1.3623,,,,,-2.57377,8.13071,7.10599,7.01022,,,,,7.89608,6.62476,6.50744,6.03578,,,,,6.91685,6.50026,7.33105,7.52737,,,,,5.65032,3.95522,6.61518,6.90009,,,,,4.46758,9.61775635,9.91580507,9.89336588,,,,,9.35563213,-0.331318,-0.15261453,0.10676571,,,,,-0.46777025,-1,-1.0,0.0,,,,,-1.0,-0.28573225,-0.22591848,-0.10683359,,,,,-0.34544425,-0.208305,0.211359,0.191201,,,,,-0.335365,-0.410501,-0.394008,-0.222966,,,,,-0.536951,-0.39523,0.304211,0.61392,,,,,-0.641409,-1.31458,-1.53694,-1.0568,,,,,-1.35062,-0.171653,-0.0458149,-0.0238237,,,,,-0.240681,-0.387899,-0.287107,-0.25412,,,,,-0.426384,1.023106,1.06987803,0.46729916,,,,,1.1712362
jddaidghNmdNCnTgmTnjaYxX4eJ2,2,2.66e-06,1.48e-06,1.28e-06,,,,,2.35e-06,3.75e-06,2.71e-06,1.47e-06,,,,,3.59e-06,1.94e-06,3e-07,1e-06,,,,,4.6e-07,262.29383184,279.09788677,173.68052113,,,,,150.2904456,-1.922064,-1.2495337,-1.0031704,,,,,-2.03267667,7.292258,7.218038,7.260178,,,,,7.93917333,5.843288,6.554845,6.52755,,,,,4.44124333,-1.71664,-0.811634,-0.790087,,,,,-1.85311,-2.06141,-1.88663,-1.15879,,,,,-2.16196,7.42442,7.50343,7.434,,,,,8.76278,7.10599,6.936,7.07965,,,,,7.49146,6.35182,6.8953,6.75404,,,,,4.94163,5.32231,6.04775,6.35421,,,,,3.80678,9.54377163,9.83743996,9.81560952,,,,,9.34741518,-0.3858226,-0.11496482,0.04618142,,,,,-0.47403133,-1,-1.0,0.0,,,,,-1.0,-0.439212,-0.17800611,-0.09272932,,,,,-0.34574967,-0.348193,0.0818559,0.0897972,,,,,-0.419054,-0.414167,-0.367741,-0.0189368,,,,,-0.524122,-1.13621,0.139888,0.103236,,,,,-0.823446,-1.46852,-1.48868,-0.379958,,,,,-1.17469,-0.422108,0.00733038,-0.0152716,,,,,-0.248622,-0.453873,-0.367741,-0.165544,,,,,-0.422108,1.43336225,0.85821416,0.18673274,,,,,1.14444287
jddaidghNmdNCnTgmTnjaYxX4eJ2,2,2.28e-06,1.97e-06,1.09e-06,,,,,2.38e-06,3.53e-06,2.5e-06,1.88e-06,,,,,3.65e-06,1.34e-06,1.26e-06,4.2e-07,,,,,4.5e-07,305.6429554,185.00889313,214.60346423,,,,,151.2236511,-1.67012714,-1.301008,-0.94996633,,,,,-2.13243667,7.28179286,7.108864,7.11610111,,,,,7.99344333,6.10384714,6.726748,6.82560333,,,,,4.47396667,-1.39343,-1.10373,-0.751779,,,,,-1.93212,-2.1883,-1.53468,-1.10852,,,,,-2.34632,7.42442,7.52498,7.24007,,,,,8.71011,7.08205,6.94079,6.97192,,,,,7.49385,6.57687,7.11317,7.23528,,,,,4.74052,4.84826,6.18422,6.46434,,,,,4.09648,9.65999318,9.88184542,9.90866368,,,,,9.41856264,-0.41757,-0.2268754,0.08959351,,,,,-0.48319433,-1,-1.0,0.0,,,,,-1.0,-0.34924029,-0.2549752,-0.07920885,,,,,-0.33516133,-0.260839,-0.169821,0.262672,,,,,-0.420275,-0.491136,-0.24679,-0.0507018,,,,,-0.52229,-0.967611,-0.775799,0.2474,,,,,-0.43738,-1.69943,-1.07024,-0.684169,,,,,-1.09162,-0.237627,-0.232129,0.0177151,,,,,-0.191201,-0.456927,-0.271224,-0.219911,,,,,-0.438601,1.41782329,1.00898055,0.32573832,,,,,0.99064497
jddaidghNmdNCnTgmTnjaYxX4eJ2,2,2.62e-06,1.48e-06,1.53e-06,,,,,1.99e-06,3.59e-06,2.13e-06,2.56e-06,,,,,3.18e-06,1.59e-06,6.9e-07,1.9e-07,,,,,8e-07,308.57473968,219.28769858,244.47033735,,,,,113.2187069,-1.81360667,-1.26892714,-0.91667925,,,,,-1.910575,7.43559333,7.25477429,7.1221525,,,,,7.93917,5.65191333,6.72360286,6.7764875,,,,,4.242525,-1.59933,-1.04387,-0.691924,,,,,-1.90339,-2.07577,-2.04465,-1.07739,,,,,-1.91776,7.70694,7.36935,7.34062,,,,,8.27436,7.12514,6.95516,6.82108,,,,,7.60398,6.21535,7.11557,7.02698,,,,,4.61841,4.89854,6.36618,6.68461,,,,,3.86664,9.52105598,9.98030019,9.87504523,,,,,9.21522541,-0.47851117,-0.10079257,0.02054038,,,,,-0.349415,-1,-1.0,0.0,,,,,-1.0,-0.45112383,-0.1838706,-0.11201742,,,,,-0.3194825,-0.452651,0.202807,0.251676,,,,,-0.282831,-0.508851,-0.478307,-0.106901,,,,,-0.415999,-1.21929,0.315817,0.284663,,,,,-1.06168,-1.41782,-1.4392,-1.06596,,,,,-1.13315,-0.415388,-0.0244346,-0.0177151,,,,,-0.270613,-0.498466,-0.378126,-0.280998,,,,,-0.368352,1.49292737,0.97853135,0.40252466,,,,,1.19679584
jddaidghNmdNCnTgmTnjaYxX4eJ2,2,1.77e-06,1.24e-06,1.02e-06,,,,,1.57e-06,2.69e-06,2.3e-06,2.44e-06,,,,,2.36e-06,6e-08,2e-07,1.9e-07,,,,,7.1e-07,298.79007393,218.18244818,212.39481948,,,,,118.44742503,-1.77543556,-0.88136512,-0.8068459,,,,,-1.88503333,7.47203778,7.09521625,7.10192,,,,,7.91044,5.69633778,6.70316875,6.604883,,,,,4.34627667,-1.31921,-0.696713,-0.577003,,,,,-1.78368,-2.32956,-1.34075,-0.914585,,,,,-1.98,8.37013,7.34781,7.27119,,,,,8.34379,7.03177,6.91445,6.74925,,,,,7.43878,7.29513,7.35499,6.95994,,,,,4.80756,4.05817,6.10043,6.2369,,,,,3.89537,9.59969165,9.80808639,9.73497411,,,,,9.2346682,-0.47009478,0.00633785,0.03268127,,,,,-0.35817067,-1,0.0,0.0,,,,,-1.0,-0.30020653,-0.1429424,-0.08038987,,,,,-0.19242267,-0.273668,0.163712,0.139277,,,,,-0.207694,-0.662789,-0.161268,-0.100182,,,,,-0.565661,-0.291383,0.174097,0.106291,,,,,-0.800844,-1.18569,-1.23639,-1.09162,,,,,-0.983493,-0.0641408,-0.0213803,0.00122173,,,,,-0.141721,-0.386678,-0.285885,-0.25412,,,,,-0.255342,1.11264599,0.58555194,0.2941566,,,,,0.96915142
jddaidghNmdNCnTgmTnjaYxX4eJ2,2,1.86e-06,1.19e-06,1.56e-06,,,,,2.91e-06,2.59e-06,1.59e-06,2.71e-06,,,,,3e-06,3.9e-07,8.8e-07,4.2e-07,,,,,2.83e-06,308.90095358,123.87839838,286.38738964,,,,,96.05206413,-1.82049125,-1.0884048,-1.14974833,,,,,-1.856705,7.73925625,7.253952,7.18925444,,,,,7.50941,5.31842,6.65588,6.56915667,,,,,5.287595,-1.62566,-0.782904,-0.845153,,,,,-1.75016,-1.98958,-1.403,-1.4868,,,,,-1.96325,8.41083,7.40287,7.31907,,,,,7.60398,7.19697,7.09163,7.01501,,,,,7.41484,6.67982,6.90727,6.9767,,,,,5.45878,4.46519,6.22492,6.09085,,,,,5.11641,9.59209033,9.9091371,9.81129339,,,,,9.37257147,-0.34681888,-0.10775654,-0.1092091,,,,,-0.267559,-1,0.0,0.0,,,,,-1.0,-0.34658975,-0.1695764,-0.14396047,,,,,-0.3307835,-0.160658,0.0537561,0.103236,,,,,-0.267559,-0.527788,-0.387899,-0.28222,,,,,-0.267559,-0.76236,0.0873537,0.158214,,,,,-0.680504,-1.35123,-1.3885,-1.21562,,,,,-0.780075,-0.132558,-0.118508,0.0378736,,,,,-0.329256,-0.457538,-0.284663,-0.274278,,,,,-0.332311,1.13119336,0.51112154,0.54583264,,,,,0.84558352
jddaidghNmdNCnTgmTnjaYxX4eJ2,2,2e-06,1.36e-06,1.79e-06,,,,,2.84e-06,2.46e-06,2.32e-06,2.76e-06,,,,,4.74e-06,1.72e-06,5.9e-07,2.6e-07,,,,,2.2e-07,131.81484551,204.02686983,244.37439739,,,,,311.83129167,-2.0566175,-1.41599857,-1.31749286,,,,,-2.348232,7.41604,7.20928429,7.07281429,,,,,7.72082,6.03279,6.38944,6.79542857,,,,,4.833416,-1.92494,-1.15879,-1.10612,,,,,-2.05422,-2.21224,-2.00155,-1.52271,,,,,-2.96881,7.52498,7.35499,7.434,,,,,8.78911,7.17303,7.08684,6.60081,,,,,7.12754,6.38773,6.80193,7.42921,,,,,6.04536,5.72454,5.96635,6.1531,,,,,3.21781,9.7805545,9.74357823,9.90535267,,,,,9.48987172,-0.36835175,-0.00043641,-0.15803953,,,,,-0.5009096,-1,0.0,-1.0,,,,,-1.0,-0.4587595,-0.16301376,-0.15681771,,,,,-0.3810578,-0.305433,0.120951,-0.0109956,,,,,-0.273057,-0.408669,-0.173486,-0.356134,,,,,-0.725708,-1.10628,0.298713,0.245568,,,,,-0.920574,-1.27671,-1.72753,-1.57481,,,,,-1.15392,-0.420886,-0.0775799,-0.0366519,,,,,-0.252287,-0.478307,-0.362854,-0.337808,,,,,-0.464258,1.33237356,0.64610405,0.69975094,,,,,1.19228275
jddaidghNmdNCnTgmTnjaYxX4eJ2,2,2.25e-06,1.68e-06,1.25e-06,,,,,1.79e-06,3.35e-06,2.1e-06,2.82e-06,,,,,3.3e-06,1.08e-06,1.08e-06,4e-07,,,,,1.9e-07,299.16201307,206.26138936,199.5848883,,,,,151.86446417,-2.12160429,-1.4161675,-1.01540589,,,,,-2.34791667,7.05742286,6.9072725,6.91897667,,,,,7.87692333,6.10418857,6.92822,7.02059778,,,,,5.11641,-1.7741,-1.17076,-0.758962,,,,,-2.24337,-2.6025,-1.83156,-1.26174,,,,,-2.48279,7.4316,7.37893,7.17303,,,,,8.33661,6.8546,6.71095,6.53617,,,,,7.43639,6.71095,7.36696,7.46991,,,,,5.24091,5.0781,6.58884,6.34942,,,,,4.96318,9.58351153,9.89386856,9.91452765,,,,,9.68711955,-0.373326,-0.06811138,0.10065711,,,,,-0.44002633,-1,-1.0,0.0,,,,,-1.0,-0.45963257,-0.30100375,-0.13751261,,,,,-0.313985,-0.320704,0.124006,0.234572,,,,,-0.392786,-0.483805,-0.262672,-0.166766,,,,,-0.496633,-1.15331,-0.864374,0.274278,,,,,-0.649961,-1.41171,-1.33474,-1.1637,,,,,-0.923017,-0.238237,-0.233351,0.00671952,,,,,-0.214414,-0.572992,-0.362243,-0.3036,,,,,-0.431882,1.3897149,1.14361752,0.55380014,,,,,0.93292993
jddaidghNmdNCnTgmTnjaYxX4eJ2,2,2.15e-06,1.83e-06,6.6e-07,,1.8e-07,,,1.5e-06,3.19e-06,2.14e-06,1.09e-06,,2.8e-07,,,2.71e-06,1.2e-06,1.56e-06,2.9e-07,,9e-08,,,8e-08,263.09473185,178.42597506,74.15953462,,10.30308785,,,102.53880368,-1.938505,-1.328304,-0.9744394,,-2.215835,,,-2.082955,7.52457667,7.174464,7.241024,,8.244435,,,7.962515,5.72812833,6.259882,6.502174,,4.09528,,,4.5394075,-1.79326,-1.01993,-0.85473,,-2.09014,,,-1.86748,-2.07098,-1.70946,-1.10612,,-2.34153,,,-2.41096,7.8051,7.35738,7.42921,,8.37731,,,8.39407,7.32386,7.05811,7.1036,,8.11156,,,7.65905,6.47153,6.45956,7.06529,,4.44603,,,5.25527,5.25048,5.95677,6.26563,,3.74453,,,3.83312,9.65900794,9.61704505,9.78404392,,9.47650564,,,9.42858017,-0.368759,-0.1762956,-0.1064129,,-0.1689045,,,-0.26954425,-1,-1.0,0.0,,0.0,,,-1.0,-0.32935817,-0.305799,-0.09859362,,-0.0030543,,,-0.23839025,-0.238237,-0.140499,-0.0812451,,-0.124617,,,-0.233961,-0.444099,-0.202196,-0.164934,,-0.213192,,,-0.28955,-0.966389,-1.0232,0.06353,,0.0549779,,,-0.26145,-1.21501,-1.37139,-0.729984,,0.00488692,,,-1.19058,-0.258396,-0.248622,-0.0555887,,0.0213803,,,-0.128282,-0.391565,-0.336587,-0.170431,,-0.0274889,,,-0.304211,1.20243162,1.27223492,0.37380602,,0.17644294,,,0.82612807
jddaidghNmdNCnTgmTnjaYxX4eJ2,3,5.4e-07,1.96e-06,1.62e-06,3.5e-07,1.7e-06,2e-06,1.58e-06,1.72e-06,7.5e-07,2.94e-06,3.25e-06,3.5e-07,3.79e-06,3.86e-06,1.94e-06,2.53e-06,2.9e-07,3e-07,1.2e-07,3.5e-07,3.5e-07,2.1e-07,1.26e-06,3.2e-07,49.53646035,433.48986023,425.41241745,5.65685425,534.98929558,422.03827678,152.24444419,476.60541997,-0.7757214,-1.12462218,-1.07646969,-1.92015,-1.5709385,-1.1506529,-0.9016562,-0.83078786,6.948932,7.04265273,7.57249308,8.49702,7.92275643,7.265204,6.960902,7.13985143,6.998252,6.68091,5.66725846,4.0462,4.94778714,5.849034,6.669766,6.45818929,-0.550666,-0.663194,-0.335188,-1.92015,-0.768539,-0.567426,-0.761356,-0.629675,-0.921768,-2.45406,-2.0231,-1.92015,-1.98958,-1.99916,-1.04866,-1.07739,7.02459,8.40844,8.41562,8.49702,8.69335,8.1331,7.07726,7.40048,6.84263,6.53856,7.25204,8.49702,6.95516,6.59842,6.90009,6.90727,7.33105,7.58004,6.51462,4.0462,6.29914,7.45554,7.17542,7.35978,6.65109,4.32393,4.59447,4.0462,3.29442,3.88579,6.33745,5.9879,9.89428446,9.83650968,9.55306172,9.6051059,9.51544537,9.50121809,9.68597758,9.67013349,0.12070704,-0.22346557,-0.14078085,-0.339641,0.29880038,0.44892502,-0.1021367,-0.16266466,0,-1.0,0.0,0.0,1.0,1.0,0.0,0.0,0.04960216,-0.18248224,-0.06644336,-0.187536,0.23732116,0.2808148,0.0985937,0.00410152,0.273057,0.0714712,0.0671952,-0.339641,0.731206,0.750143,-0.0342085,0.0763582,0.0427606,-0.568716,-0.519235,-0.339641,-0.116064,0.0989602,-0.16921,-0.398284,0.432493,0.0287107,-0.00794125,-0.116675,1.69759,1.62124,0.79779,0.224188,-0.193644,-1.16431,-0.587652,-0.116675,-0.0702495,0.248011,0.154549,-0.045204,0.125227,-0.00610865,0.00610865,-0.187536,0.43738,0.438601,0.182649,0.0513127,-0.0164934,-0.350026,-0.295048,-0.187536,-0.072693,0.178373,0.0299324,-0.0323759,0.27466773,0.7287572,0.3059792,0.40514049,0.8707182,0.96528908,0.46243446,0.2461728
jddaidghNmdNCnTgmTnjaYxX4eJ2,3,1.26e-06,1.33e-06,2.01e-06,2.19e-06,1.41e-06,2.62e-06,1.58e-06,2e-06,2.93e-06,2.72e-06,2.26e-06,3.62e-06,2.14e-06,4.02e-06,2.29e-06,2.68e-06,4e-08,1.7e-07,1.35e-06,1.9e-07,1.2e-07,1.4e-07,9.4e-07,1.35e-06,258.95250521,265.56559734,170.15666725,412.40923131,373.1593818,564.3872883,159.59921283,398.5945341,-1.0503364,-1.11112755,-1.2324145,-1.414174,-1.78920531,-1.14878136,-1.029506,-1.01221567,6.97838,7.19131182,7.2191175,7.51300556,7.90233846,6.90270273,6.87902,7.07433444,6.92427,6.03077545,5.779605,5.55907,5.24845769,6.44584364,6.85891,6.39624333,-0.663194,-0.593762,-0.995988,-0.778116,-0.797269,-0.430956,-0.794875,-0.842759,-1.30484,-1.7765,-1.44849,-2.27689,-2.81319,-1.84832,-1.17795,-1.22344,7.96311,8.03255,7.57047,8.011,8.25281,7.99185,6.9767,7.46991,6.46674,6.64391,6.89291,7.20176,6.55772,6.34224,6.69419,6.80432,8.03015,7.4723,6.0717,6.16986,7.24246,7.40048,7.25204,7.82186,4.54419,4.79319,5.38217,5.22654,3.89776,5.38695,6.26563,5.40371,9.94579937,9.50333023,9.33708012,9.46956224,9.71941445,9.55522795,9.77173188,9.60859431,-0.1587639,-0.16904301,-0.04657848,0.08205968,0.34786431,0.38079123,-0.1866804,-0.19778472,0,0.0,-1.0,0.0,1.0,1.0,0.0,0.0,-0.08362742,-0.10934481,-0.05375612,-0.0057014,0.25083065,0.29315982,0.03518584,-0.02769256,0.296881,0.00549779,-0.0311541,0.23274,0.483194,0.676839,-0.018326,0.106291,-0.48014,-0.387899,-0.0659734,-0.0250455,0.10568,-0.0140499,-0.31765,-0.42333,0.3036,-0.022602,-0.0989602,0.126449,1.32802,1.53388,0.290161,0.0415388,-0.773966,-0.789238,-0.875981,-0.262672,-0.224798,0.397062,0.221744,-0.141721,0.110567,0.0018326,-0.0244346,0.0531453,0.453262,0.491747,0.103847,0.0213803,-0.215635,-0.19792,-0.103847,-0.0439823,0.0128282,0.141721,-0.00855211,-0.0580322,0.52014778,0.36856186,0.5856255,0.18045408,0.73276093,1.18002138,0.32705133,0.24969319
jddaidghNmdNCnTgmTnjaYxX4eJ2,3,1.49e-06,1.42e-06,1.15e-06,2e-06,2.04e-06,1.77e-06,1.71e-06,1.92e-06,2.28e-06,2.97e-06,2.69e-06,4.39e-06,3.49e-06,2.61e-06,1.87e-06,2.45e-06,5.4e-07,3.6e-07,1.9e-07,9e-08,2.4e-07,1.06e-06,1.61e-06,8e-08,184.10688804,400.7000205,134.60874732,308.20674303,740.78735924,251.30568274,113.12493215,454.22194121,-1.01993043,-1.16284577,-1.31475986,-0.98461438,-1.51919178,-1.20907062,-0.93054633,-0.80423373,7.22980571,7.60067,8.26239,8.235455,8.13634294,7.6396,7.11317333,7.42159,6.31522143,5.72158846,4.61396857,4.48314375,4.73742059,5.82988125,6.43960667,6.22819091,-0.462081,-0.627281,-0.92895,-0.122104,-0.0502782,-0.756568,-0.85473,-0.59855,-1.50116,-2.04465,-2.03747,-2.03028,-2.8898,-1.84593,-1.04866,-1.14203,7.90565,8.30788,8.90643,9.13148,9.09797,8.34619,7.30471,7.62793,6.79714,7.07965,7.75721,7.27358,6.92882,7.02459,6.91924,6.92164,7.65666,8.10677,5.51145,6.47632,6.73728,6.91445,6.60321,7.18979,4.62081,3.64158,3.27287,2.5618,3.5506,4.09169,6.19859,5.7796,9.71326232,9.66954457,9.60103463,9.5568815,9.61847505,9.75352846,9.64323149,9.72897262,-0.45526914,-0.07429058,-0.25891957,0.27275132,0.31380506,0.35842521,-0.134187,-0.169654,0,0.0,0.0,0.0,1.0,1.0,0.0,0.0,-0.13142344,-0.07203516,-0.0523598,0.1030071,0.19026658,0.2651155,0.160861,0.02548978,0.41661,0.311541,0.31093,0.629802,0.779464,0.794736,-0.127671,0.588874,-0.867429,-0.447764,-0.414777,0.0201586,-0.137445,-0.0177151,-0.146608,-0.865596,0.37446,0.321926,0.291383,0.458149,1.55282,1.4844,0.747088,0.429438,-0.644463,-1.3494,-1.12155,-0.403782,-0.06353,0.249844,0.293826,-0.054367,0.166766,0.12034,0.0946841,0.236405,0.373239,0.335976,0.206472,0.205862,-0.268781,-0.258396,-0.230296,-0.076969,-0.0977384,0.163101,0.12034,-0.0329867,0.71096912,0.61319077,0.51226716,0.4195377,0.90242706,0.9016123,0.54177604,0.3444408
jddaidghNmdNCnTgmTnjaYxX4eJ2,3,1.34e-06,1.54e-06,9.4e-07,1.74e-06,1.54e-06,2.6e-06,1.32e-06,2.15e-06,2.29e-06,3.37e-06,2.12e-06,3.12e-06,2.34e-06,4.29e-06,2.08e-06,2.67e-06,7e-08,2.5e-07,4e-08,1.3e-07,5.2e-07,2.9e-07,8.9e-07,1.28e-06,265.97275589,337.23926097,110.95568166,210.9312732,470.71214554,561.23228082,122.11399754,417.73351487,-1.28449,-1.34075382,-1.20707517,-1.393424,-1.76976375,-1.0721225,-1.321,-1.1200079,6.849573,7.44749091,7.91483167,8.188648,8.45093375,7.140227,7.08564,7.108864,7.149805,5.86971273,4.680265,4.66965,3.91706375,6.211515,6.984485,6.402095,-1.00317,-0.969652,-0.916979,-1.04866,-1.29047,-0.433351,-1.17555,-0.814029,-1.58257,-1.95127,-1.86987,-1.98,-2.34153,-1.81241,-1.41737,-1.39103,7.53455,8.04452,9.35654,9.34457,9.13148,8.20014,7.18021,7.73088,6.53617,6.89291,7.53216,7.60159,7.62793,6.59842,6.94079,6.78517,8.04452,7.70694,5.71975,5.65271,5.48033,6.91445,7.3071,7.33583,5.81552,4.30238,2.87544,2.9712,2.21224,4.72615,6.52659,5.39174,10.00587057,9.63862874,9.33697335,9.61421635,9.54141898,9.57540738,10.03953712,9.65420016,-0.17452406,-0.50274164,-0.16279548,-0.06218608,0.51663935,0.7732333,-0.05207628,-0.22876896,0,0.0,0.0,0.0,1.0,1.0,0.0,0.0,-0.11270455,-0.13572309,-0.06678791,-0.0333533,0.20677794,0.3569897,0.05696326,-0.03347542,0.658513,0.24679,0.0555887,0.0690278,0.872316,1.00365,0.110567,0.140499,-0.77641,-1.01281,-0.516792,-0.306654,-0.0873537,0.349415,-0.150273,-0.555887,0.32498,0.145997,-0.0250455,-0.122784,1.49234,1.87597,0.316428,0.18387,-0.863153,-0.902248,-0.217468,-0.191812,-0.0623083,0.383013,0.232129,-0.0849103,0.224188,0.0824668,-0.00061087,0.00916298,0.427606,0.450819,0.124006,0.0213803,-0.337198,-0.325591,-0.257785,-0.137445,-0.0971276,0.249233,0.00977384,-0.0763582,0.52022541,0.72999362,0.26481111,0.21657486,0.80551506,1.30969442,0.30062316,0.30718235
jddaidghNmdNCnTgmTnjaYxX4eJ2,3,4.7e-07,7.9e-07,6.1e-07,1.7e-06,6.4e-07,1.64e-06,9.3e-07,2.37e-06,9.6e-07,1.6e-06,1.38e-06,3.86e-06,6.4e-07,2.16e-06,9.6e-07,4.31e-06,6e-08,1.3e-07,6e-08,2.1e-07,6.4e-07,1.19e-06,9.1e-07,7.3e-07,32.79023388,73.37673174,73.00397272,239.93677532,21.09502311,137.43002271,46.36203851,483.8574611,-2.041055,-1.8674775,-1.96461429,-1.85892743,-2.81079,-2.438734,-2.240975,-1.79432222,7.2191175,7.31249,7.41655286,7.73429857,7.77397,6.898174,6.62356,7.14775556,5.799955,5.3642075,5.40542286,5.43210286,5.42526,6.58118,7.632715,6.11771778,-1.56102,-1.60172,-1.22583,-0.998382,-2.81079,-2.36308,-2.17394,-1.30005,-2.65038,-2.29604,-2.88501,-3.05261,-2.81079,-2.5618,-2.30801,-2.34153,7.67581,7.83143,8.01579,8.25521,7.77397,7.51779,6.71813,7.56568,6.86657,6.77799,6.90488,7.21134,7.77397,6.31112,6.52899,6.73489,6.72531,6.12676,7.20176,6.03818,5.42526,7.513,7.68299,8.03255,5.29358,4.38857,4.26407,4.66391,5.42526,5.15232,7.58244,4.82671,9.50818249,9.29094309,9.45553351,9.66985602,9.88780036,9.89334219,10.35218524,9.63861768,-0.25946495,-0.2559525,-0.0588176,0.1346521,0.0873537,0.08307788,-0.3604105,-0.49921269,0,0.0,0.0,0.0,1.0,1.0,1.0,0.0,-0.10629068,-0.08628472,-0.03743729,0.07792901,0.124617,0.2274862,0.0775799,-0.04276064,-0.0507018,0.018326,0.0818559,0.257785,0.0873537,0.251066,-0.295048,0.0280998,-0.451429,-0.502131,-0.304822,0.0250455,0.0873537,-0.158825,-0.425773,-0.959058,-0.0507018,0.270613,0.433714,0.346971,0.637743,1.0513,0.648739,0.602313,-0.528398,-0.511294,-0.379958,-0.0439823,0.637743,0.824057,0.519846,-0.076969,-0.0476475,-0.0470366,0.0568105,0.128893,0.124617,0.284052,0.0916298,0.0867429,-0.196699,-0.172875,-0.181427,0.0513127,0.124617,0.144164,0.06353,-0.155771,0.44395629,0.49483056,0.36149556,0.27486136,0.65564945,0.98478066,0.69674954,0.63384079
jddaidghNmdNCnTgmTnjaYxX4eJ2,3,1.46e-06,1.61e-06,1.71e-06,1.91e-06,1.52e-06,1.8e-06,1.61e-06,2.39e-06,2.21e-06,2.88e-06,3.46e-06,3.19e-06,3.85e-06,3.34e-06,1.83e-06,2.74e-06,2.6e-07,8e-08,7e-08,8.7e-07,2.3e-07,2.3e-07,1.31e-06,1.94e-06,336.76002862,121.80035121,316.30028727,311.75312281,434.97914779,497.17764242,158.74419336,393.78757294,-1.85570583,-1.90758,-1.75894111,-1.89561075,-1.82150733,-2.17502364,-1.881844,-1.5697,7.12953417,7.2723875,7.88570222,7.93947375,8.32687533,7.11099727,6.885244,7.15986,6.58006417,6.089055,4.56255111,4.64086125,3.63998533,6.78016091,6.618532,6.34912375,-1.45807,-1.75256,-1.08697,-0.897826,-1.05105,-1.74058,-1.51314,-1.33118,-2.1883,-2.00155,-2.53067,-2.8084,-2.48518,-2.49236,-2.21224,-2.01831,7.93678,7.8865,9.22965,8.26478,9.08839,8.02058,6.94797,7.36696,6.7708,6.83305,7.44357,7.35499,7.11796,6.62476,6.78517,6.89051,7.37414,7.11796,5.76763,4.90333,5.80354,7.8027,7.185,6.81869,5.63595,5.03022,3.54102,3.95762,1.45567,5.21218,6.01184,5.87537,9.89579076,9.7108966,9.31811462,9.41670316,9.38404867,10.10564533,9.7433589,9.70112058,-0.25106552,-0.28542675,-0.1671735,0.136452,0.58679707,0.51612586,-0.2211332,-0.43211075,0,0.0,0.0,0.0,0.0,1.0,1.0,0.0,-0.10893758,-0.10079288,-0.08287407,0.0539852,0.28621059,0.36790755,0.05595526,-0.03917173,0.227853,0.234572,0.067806,0.421497,1.19607,1.01343,-0.158825,-0.227853,-0.682947,-0.589485,-0.36713,-0.0366519,0.031765,-0.0476475,-0.320093,-0.618806,0.25412,0.443488,0.129503,0.422719,1.10994,1.35307,0.739758,0.488081,-0.708604,-0.868039,-0.959669,-0.168599,-0.28222,0.544892,0.412334,0.013439,0.0928515,0.128282,0.0671952,0.0928515,0.682947,0.624304,0.095295,0.00733038,-0.256563,-0.237627,-0.228464,0.0171042,-0.0470366,0.169821,0.031765,-0.0800233,0.54585747,0.7307716,0.51443152,0.23559947,0.83636631,1.02245615,0.66859543,0.54185843
jddaidghNmdNCnTgmTnjaYxX4eJ2,3,1.6e-06,2.07e-06,2.02e-06,1.7e-06,1.45e-06,1.96e-06,1.94e-06,2.46e-06,2.54e-06,3.85e-06,3.77e-06,3.4e-06,2.96e-06,3.22e-06,3.54e-06,3.83e-06,6.1e-07,1.14e-06,2.8e-07,1.9e-07,1.2e-07,3.7e-07,9e-07,1.58e-06,291.73143694,239.45841607,262.41933678,322.72462671,348.3770015,527.10440974,161.08920868,334.94340769,-2.123896,-1.905304,-1.93862143,-1.89514444,-2.00514333,-2.21592615,-2.20458,-1.77131,7.230967,7.499118,7.93917286,8.16103444,8.6049625,7.09457385,6.996338,7.20814333,6.314228,5.40946,4.36087,4.15340778,3.48934917,6.17538154,6.96234,5.98869667,-1.6089,-1.39821,-1.1157,-1.30723,-1.32878,-1.49159,-1.65439,-1.59214,-2.50194,-2.3128,-2.58334,-2.59053,-2.75094,-2.86586,-2.61686,-2.1476,7.91284,8.08761,9.22486,8.48026,9.10994,8.63828,7.35499,7.54174,6.86896,6.8546,7.33344,7.65666,7.41724,6.53378,6.65828,6.8953,7.37175,7.40527,5.4109,5.89692,5.60004,7.37654,7.18261,6.35421,5.25048,4.12042,2.48279,2.60968,1.7334,1.86508,6.83545,5.63356,9.86148892,9.52018703,9.33761848,9.41883601,9.55861378,9.77224966,10.12029371,9.54441201,-0.343123,-0.3976732,-0.223315,0.22493415,0.57548544,0.52050426,-0.3913202,-0.53919033,0,0.0,0.0,0.0,0.0,1.0,0.0,0.0,-0.1081231,-0.1270601,-0.08962272,0.05552087,0.29794951,0.29885408,-0.02553412,-0.1011999,0.216857,-0.105069,-0.124006,0.871094,1.16736,1.12216,-0.13439,-0.288328,-0.762971,-0.616974,-0.31032,-0.128893,-0.166766,0.00610865,-0.710436,-0.761138,0.19792,0.0427606,0.136223,0.466701,1.03908,0.999376,0.533285,0.674395,-0.56505,-0.643241,-0.808786,-0.00244346,-0.492357,-0.386067,0.298102,0.117897,0.095295,-0.0464258,-0.00488692,0.271224,0.576046,0.54367,0.0891863,-0.0665843,-0.207083,-0.213803,-0.237627,-0.0244346,-0.120951,0.138056,-0.116675,-0.125227,0.55045858,0.54254125,0.51145911,0.36442146,0.89389132,0.88511203,0.64577398,0.73059767
